#
# Results on Tuesday May 07 2019 21:15:02 UTC.
# USER AGENT: Mozilla/5.0 (Macintosh; Intel Mac OS X 10_11_6) AppleWebKit/537.36 (KHTML, like Gecko) Chrome/74.0.3729.131 Safari/537.36
# Design number was non-random = 5
#
# The lines below this comment are in groups of 2.
# The formats of the lines in each of these groups are as follows:
#
# Line 1:
#     Col. 1: Time results were received.
#     Col. 2: MD5 hash of participant's IP address.
#     Col. 3: Controller name.
#     Col. 4: Item number.
#     Col. 5: Element number.
#     Col. 6: Type.
#     Col. 7: Group.
#     Col. 8: Field name.
#     Col. 9: Field value.
# Line 2:
#     Col. 1: Time results were received.
#     Col. 2: MD5 hash of participant's IP address.
#     Col. 3: Controller name.
#     Col. 4: Item number.
#     Col. 5: Element number.
#     Col. 6: Type.
#     Col. 7: Group.
#     Col. 8: Question (NULL if none).
#     Col. 9: Answer.
#     Col. 10: Whether or not answer was correct (NULL if N/A).
#     Col. 11: Time taken to answer.
1557263703,ce2e1a8fc084b6e1663876c3663e7e41,Form,1,0,intro,NULL,_REACTION_TIME_,1294
1557263703,ce2e1a8fc084b6e1663876c3663e7e41,Question,7,0,interpret-24,1,<p> You meet your friend Alex in a restaurant%2C but arrive late after she orders. </p> <p> The menu includes a sandwich which costs $15%2C and a soup which costs $10%2C as well pizza and other things. </p> <p> There is a special today. If you order both the sandwich and soup%2C you get a discount. <u> Instead of paying 25 Dollars%2C you pay only 24 Dollars. </u> </p> <p> You ask Alex%2C "What did you order?" </p> <p> She responds%2C "I ordered the sandwich." </p> <p> <b> How likely is it%2C in your opinion%2C that she also ordered soup? </b> </p>,3,NULL,16304
# Columns below this comment are as follows:
# 1. Time results were received.
# 2. MD5 hash of participant's IP address.
# 3. Controller name.
# 4. Item number.
# 5. Element number.
# 6. Type.
# 7. Group.
# 8. Field name.
# 9. Field value.
1557263703,ce2e1a8fc084b6e1663876c3663e7e41,Form,8,0,comprehension,NULL,q1,Alex
1557263703,ce2e1a8fc084b6e1663876c3663e7e41,Form,8,0,comprehension,NULL,q2,22
1557263703,ce2e1a8fc084b6e1663876c3663e7e41,Form,8,0,comprehension,NULL,_REACTION_TIME_,4827
1557263703,ce2e1a8fc084b6e1663876c3663e7e41,Form,9,0,outro,NULL,nativeq,no
1557263703,ce2e1a8fc084b6e1663876c3663e7e41,Form,9,0,outro,NULL,_REACTION_TIME_,4199
#
# Results on Tuesday May 07 2019 21:15:25 UTC.
# USER AGENT: Mozilla/5.0 (Macintosh; Intel Mac OS X 10_11_6) AppleWebKit/537.36 (KHTML, like Gecko) Chrome/74.0.3729.131 Safari/537.36
# Design number was non-random = 6
#
# The lines below this comment are in groups of 2.
# The formats of the lines in each of these groups are as follows:
#
# Line 1:
#     Col. 1: Time results were received.
#     Col. 2: MD5 hash of participant's IP address.
#     Col. 3: Controller name.
#     Col. 4: Item number.
#     Col. 5: Element number.
#     Col. 6: Type.
#     Col. 7: Group.
#     Col. 8: Field name.
#     Col. 9: Field value.
# Line 2:
#     Col. 1: Time results were received.
#     Col. 2: MD5 hash of participant's IP address.
#     Col. 3: Controller name.
#     Col. 4: Item number.
#     Col. 5: Element number.
#     Col. 6: Type.
#     Col. 7: Group.
#     Col. 8: Question (NULL if none).
#     Col. 9: Answer.
#     Col. 10: Whether or not answer was correct (NULL if N/A).
#     Col. 11: Time taken to answer.
1557263726,ce2e1a8fc084b6e1663876c3663e7e41,Form,1,0,intro,NULL,_REACTION_TIME_,2529
1557263726,ce2e1a8fc084b6e1663876c3663e7e41,Question,2,0,interpret-15,1,<p> You meet your friend Alex in a restaurant%2C but arrive late after she orders. </p> <p> The menu includes a sandwich which costs $15%2C and a soup which costs $10%2C as well pizza and other things. </p> <p> There is a special today. If you order both the sandwich and soup%2C you get a discount. <u> Instead of paying 25 Dollars%2C you pay only 15 Dollars. </u> </p> <p> You ask Alex%2C "What did you order?" </p> <p> She responds%2C "I ordered the sandwich." </p> <p> <b> How likely is it%2C in your opinion%2C that she also ordered soup? </b> </p>,4,NULL,5946
# Columns below this comment are as follows:
# 1. Time results were received.
# 2. MD5 hash of participant's IP address.
# 3. Controller name.
# 4. Item number.
# 5. Element number.
# 6. Type.
# 7. Group.
# 8. Field name.
# 9. Field value.
1557263726,ce2e1a8fc084b6e1663876c3663e7e41,Form,8,0,comprehension,NULL,q1,Alex
1557263726,ce2e1a8fc084b6e1663876c3663e7e41,Form,8,0,comprehension,NULL,q2,16
1557263726,ce2e1a8fc084b6e1663876c3663e7e41,Form,8,0,comprehension,NULL,_REACTION_TIME_,6099
1557263726,ce2e1a8fc084b6e1663876c3663e7e41,Form,9,0,outro,NULL,nativeq,no
1557263726,ce2e1a8fc084b6e1663876c3663e7e41,Form,9,0,outro,NULL,_REACTION_TIME_,1865
#
# Results on Tuesday May 07 2019 21:26:42 UTC.
# USER AGENT: Mozilla/5.0 (Macintosh; Intel Mac OS X 10_11_6) AppleWebKit/537.36 (KHTML, like Gecko) Chrome/74.0.3729.131 Safari/537.36
# Design number was non-random = 7
#
# The lines below this comment are in groups of 2.
# The formats of the lines in each of these groups are as follows:
#
# Line 1:
#     Col. 1: Time results were received.
#     Col. 2: MD5 hash of participant's IP address.
#     Col. 3: Controller name.
#     Col. 4: Item number.
#     Col. 5: Element number.
#     Col. 6: Type.
#     Col. 7: Group.
#     Col. 8: Field name.
#     Col. 9: Field value.
# Line 2:
#     Col. 1: Time results were received.
#     Col. 2: MD5 hash of participant's IP address.
#     Col. 3: Controller name.
#     Col. 4: Item number.
#     Col. 5: Element number.
#     Col. 6: Type.
#     Col. 7: Group.
#     Col. 8: Question (NULL if none).
#     Col. 9: Answer.
#     Col. 10: Whether or not answer was correct (NULL if N/A).
#     Col. 11: Time taken to answer.
1557264403,ce2e1a8fc084b6e1663876c3663e7e41,Form,1,0,intro,NULL,_REACTION_TIME_,2563
1557264403,ce2e1a8fc084b6e1663876c3663e7e41,Question,3,0,interpret-16,1,<p> You meet your friend Alex in a restaurant%2C but arrive late after she orders. </p> <p> The menu includes a sandwich which costs $15%2C and a soup which costs $10%2C as well pizza and other things. </p> <p> There is a special today. If you order both the sandwich and soup%2C you get a discount. <u> Instead of paying 25 Dollars%2C you pay only 16 Dollars. </u> </p> <p> You ask Alex%2C "What did you order?" </p> <p> She responds%2C "I ordered the sandwich." </p> <p> <b> How likely is it%2C in your opinion%2C that she also ordered soup? </b> </p>,3,NULL,133918
# Columns below this comment are as follows:
# 1. Time results were received.
# 2. MD5 hash of participant's IP address.
# 3. Controller name.
# 4. Item number.
# 5. Element number.
# 6. Type.
# 7. Group.
# 8. Field name.
# 9. Field value.
1557264403,ce2e1a8fc084b6e1663876c3663e7e41,Form,8,0,comprehension,NULL,q1,Alex
1557264403,ce2e1a8fc084b6e1663876c3663e7e41,Form,8,0,comprehension,NULL,q2,24
1557264403,ce2e1a8fc084b6e1663876c3663e7e41,Form,8,0,comprehension,NULL,_REACTION_TIME_,3686
1557264403,ce2e1a8fc084b6e1663876c3663e7e41,Form,9,0,outro,NULL,nativeq,no
1557264403,ce2e1a8fc084b6e1663876c3663e7e41,Form,9,0,outro,NULL,_REACTION_TIME_,2050
#
# Results on Tuesday May 07 2019 21:50:24 UTC.
# USER AGENT: Mozilla/5.0 (Macintosh; Intel Mac OS X 10_11_6) AppleWebKit/537.36 (KHTML, like Gecko) Chrome/74.0.3729.131 Safari/537.36
# Design number was non-random = 8
#
# The lines below this comment are in groups of 2.
# The formats of the lines in each of these groups are as follows:
#
# Line 1:
#     Col. 1: Time results were received.
#     Col. 2: MD5 hash of participant's IP address.
#     Col. 3: Controller name.
#     Col. 4: Item number.
#     Col. 5: Element number.
#     Col. 6: Type.
#     Col. 7: Group.
#     Col. 8: Field name.
#     Col. 9: Field value.
# Line 2:
#     Col. 1: Time results were received.
#     Col. 2: MD5 hash of participant's IP address.
#     Col. 3: Controller name.
#     Col. 4: Item number.
#     Col. 5: Element number.
#     Col. 6: Type.
#     Col. 7: Group.
#     Col. 8: Question (NULL if none).
#     Col. 9: Answer.
#     Col. 10: Whether or not answer was correct (NULL if N/A).
#     Col. 11: Time taken to answer.
1557265825,ce2e1a8fc084b6e1663876c3663e7e41,Form,1,0,intro,NULL,_REACTION_TIME_,3323
1557265825,ce2e1a8fc084b6e1663876c3663e7e41,Question,4,0,interpret-18,1,<p> You meet your friend Alex in a restaurant%2C but arrive late after she orders. </p> <p> The menu includes a sandwich which costs $15%2C and a soup which costs $10%2C as well pizza and other things. </p> <p> There is a special today. If you order both the sandwich and soup%2C you get a discount. <u> Instead of paying 25 Dollars%2C you pay only 18 Dollars. </u> </p> <p> You ask Alex%2C "What did you order?" </p> <p> She responds%2C "I ordered the sandwich." </p> <p> <b> How likely is it%2C in your opinion%2C that she also ordered soup? </b> </p>,2,NULL,5572
# Columns below this comment are as follows:
# 1. Time results were received.
# 2. MD5 hash of participant's IP address.
# 3. Controller name.
# 4. Item number.
# 5. Element number.
# 6. Type.
# 7. Group.
# 8. Field name.
# 9. Field value.
1557265825,ce2e1a8fc084b6e1663876c3663e7e41,Form,8,0,comprehension,NULL,q1,Sam
1557265825,ce2e1a8fc084b6e1663876c3663e7e41,Form,8,0,comprehension,NULL,q2,24
1557265825,ce2e1a8fc084b6e1663876c3663e7e41,Form,8,0,comprehension,NULL,_REACTION_TIME_,4079
1557265825,ce2e1a8fc084b6e1663876c3663e7e41,Form,9,0,outro,NULL,nativeq,no
1557265825,ce2e1a8fc084b6e1663876c3663e7e41,Form,9,0,outro,NULL,_REACTION_TIME_,3225
#
# Results on Tuesday May 07 2019 21:53:40 UTC.
# USER AGENT: Mozilla/5.0 (X11; CrOS x86_64 11647.154.0) AppleWebKit/537.36 (KHTML, like Gecko) Chrome/73.0.3683.114 Safari/537.36
# Design number was non-random = 9
#
# The lines below this comment are in groups of 2.
# The formats of the lines in each of these groups are as follows:
#
# Line 1:
#     Col. 1: Time results were received.
#     Col. 2: MD5 hash of participant's IP address.
#     Col. 3: Controller name.
#     Col. 4: Item number.
#     Col. 5: Element number.
#     Col. 6: Type.
#     Col. 7: Group.
#     Col. 8: Field name.
#     Col. 9: Field value.
# Line 2:
#     Col. 1: Time results were received.
#     Col. 2: MD5 hash of participant's IP address.
#     Col. 3: Controller name.
#     Col. 4: Item number.
#     Col. 5: Element number.
#     Col. 6: Type.
#     Col. 7: Group.
#     Col. 8: Question (NULL if none).
#     Col. 9: Answer.
#     Col. 10: Whether or not answer was correct (NULL if N/A).
#     Col. 11: Time taken to answer.
1557266020,58fcc76abd49756bf393e95bcedfc782,Form,1,0,intro,NULL,_REACTION_TIME_,2319
1557266020,58fcc76abd49756bf393e95bcedfc782,Question,5,0,interpret-20,1,<p> You meet your friend Alex in a restaurant%2C but arrive late after she orders. </p> <p> The menu includes a sandwich which costs $15%2C and a soup which costs $10%2C as well pizza and other things. </p> <p> There is a special today. If you order both the sandwich and soup%2C you get a discount. <u> Instead of paying 25 Dollars%2C you pay only 20 Dollars. </u> </p> <p> You ask Alex%2C "What did you order?" </p> <p> She responds%2C "I ordered the sandwich." </p> <p> <b> How likely is it%2C in your opinion%2C that she also ordered soup? </b> </p>,5,NULL,13168
# Columns below this comment are as follows:
# 1. Time results were received.
# 2. MD5 hash of participant's IP address.
# 3. Controller name.
# 4. Item number.
# 5. Element number.
# 6. Type.
# 7. Group.
# 8. Field name.
# 9. Field value.
1557266020,58fcc76abd49756bf393e95bcedfc782,Form,8,0,comprehension,NULL,q1,Alex
1557266020,58fcc76abd49756bf393e95bcedfc782,Form,8,0,comprehension,NULL,q2,20
1557266020,58fcc76abd49756bf393e95bcedfc782,Form,8,0,comprehension,NULL,_REACTION_TIME_,6232
1557266020,58fcc76abd49756bf393e95bcedfc782,Form,9,0,outro,NULL,nativeq,yes
1557266020,58fcc76abd49756bf393e95bcedfc782,Form,9,0,outro,NULL,_REACTION_TIME_,11880
#
# Results on Tuesday May 07 2019 21:54:00 UTC.
# USER AGENT: Mozilla/5.0 (Macintosh; Intel Mac OS X 10_12_6) AppleWebKit/537.36 (KHTML, like Gecko) Chrome/73.0.3683.103 Safari/537.36
# Design number was non-random = 9
#
# The lines below this comment are in groups of 2.
# The formats of the lines in each of these groups are as follows:
#
# Line 1:
#     Col. 1: Time results were received.
#     Col. 2: MD5 hash of participant's IP address.
#     Col. 3: Controller name.
#     Col. 4: Item number.
#     Col. 5: Element number.
#     Col. 6: Type.
#     Col. 7: Group.
#     Col. 8: Field name.
#     Col. 9: Field value.
# Line 2:
#     Col. 1: Time results were received.
#     Col. 2: MD5 hash of participant's IP address.
#     Col. 3: Controller name.
#     Col. 4: Item number.
#     Col. 5: Element number.
#     Col. 6: Type.
#     Col. 7: Group.
#     Col. 8: Question (NULL if none).
#     Col. 9: Answer.
#     Col. 10: Whether or not answer was correct (NULL if N/A).
#     Col. 11: Time taken to answer.
1557266040,c6e4e7a50db6271e8c16208d156dae86,Form,1,0,intro,NULL,_REACTION_TIME_,6084
1557266040,c6e4e7a50db6271e8c16208d156dae86,Question,5,0,interpret-20,1,<p> You meet your friend Alex in a restaurant%2C but arrive late after she orders. </p> <p> The menu includes a sandwich which costs $15%2C and a soup which costs $10%2C as well pizza and other things. </p> <p> There is a special today. If you order both the sandwich and soup%2C you get a discount. <u> Instead of paying 25 Dollars%2C you pay only 20 Dollars. </u> </p> <p> You ask Alex%2C "What did you order?" </p> <p> She responds%2C "I ordered the sandwich." </p> <p> <b> How likely is it%2C in your opinion%2C that she also ordered soup? </b> </p>,6,NULL,18034
# Columns below this comment are as follows:
# 1. Time results were received.
# 2. MD5 hash of participant's IP address.
# 3. Controller name.
# 4. Item number.
# 5. Element number.
# 6. Type.
# 7. Group.
# 8. Field name.
# 9. Field value.
1557266040,c6e4e7a50db6271e8c16208d156dae86,Form,8,0,comprehension,NULL,q1,Alex
1557266040,c6e4e7a50db6271e8c16208d156dae86,Form,8,0,comprehension,NULL,q2,20
1557266040,c6e4e7a50db6271e8c16208d156dae86,Form,8,0,comprehension,NULL,_REACTION_TIME_,11778
1557266040,c6e4e7a50db6271e8c16208d156dae86,Form,9,0,outro,NULL,nativeq,yes
1557266040,c6e4e7a50db6271e8c16208d156dae86,Form,9,0,outro,NULL,_REACTION_TIME_,4902
#
# Results on Tuesday May 07 2019 21:54:00 UTC.
# USER AGENT: Mozilla/5.0 (Windows NT 6.1; Win64; x64) AppleWebKit/537.36 (KHTML, like Gecko) Chrome/74.0.3729.131 Safari/537.36
# Design number was non-random = 9
#
# The lines below this comment are in groups of 2.
# The formats of the lines in each of these groups are as follows:
#
# Line 1:
#     Col. 1: Time results were received.
#     Col. 2: MD5 hash of participant's IP address.
#     Col. 3: Controller name.
#     Col. 4: Item number.
#     Col. 5: Element number.
#     Col. 6: Type.
#     Col. 7: Group.
#     Col. 8: Field name.
#     Col. 9: Field value.
# Line 2:
#     Col. 1: Time results were received.
#     Col. 2: MD5 hash of participant's IP address.
#     Col. 3: Controller name.
#     Col. 4: Item number.
#     Col. 5: Element number.
#     Col. 6: Type.
#     Col. 7: Group.
#     Col. 8: Question (NULL if none).
#     Col. 9: Answer.
#     Col. 10: Whether or not answer was correct (NULL if N/A).
#     Col. 11: Time taken to answer.
1557266041,0777c33b96abc1812d7215045c465408,Form,1,0,intro,NULL,_REACTION_TIME_,7019
1557266041,0777c33b96abc1812d7215045c465408,Question,5,0,interpret-20,1,<p> You meet your friend Alex in a restaurant%2C but arrive late after she orders. </p> <p> The menu includes a sandwich which costs $15%2C and a soup which costs $10%2C as well pizza and other things. </p> <p> There is a special today. If you order both the sandwich and soup%2C you get a discount. <u> Instead of paying 25 Dollars%2C you pay only 20 Dollars. </u> </p> <p> You ask Alex%2C "What did you order?" </p> <p> She responds%2C "I ordered the sandwich." </p> <p> <b> How likely is it%2C in your opinion%2C that she also ordered soup? </b> </p>,5,NULL,16998
# Columns below this comment are as follows:
# 1. Time results were received.
# 2. MD5 hash of participant's IP address.
# 3. Controller name.
# 4. Item number.
# 5. Element number.
# 6. Type.
# 7. Group.
# 8. Field name.
# 9. Field value.
1557266041,0777c33b96abc1812d7215045c465408,Form,8,0,comprehension,NULL,q1,Alex
1557266041,0777c33b96abc1812d7215045c465408,Form,8,0,comprehension,NULL,q2,20
1557266041,0777c33b96abc1812d7215045c465408,Form,8,0,comprehension,NULL,_REACTION_TIME_,9634
1557266041,0777c33b96abc1812d7215045c465408,Form,9,0,outro,NULL,nativeq,yes
1557266041,0777c33b96abc1812d7215045c465408,Form,9,0,outro,NULL,_REACTION_TIME_,11513
#
# Results on Tuesday May 07 2019 21:54:10 UTC.
# USER AGENT: Mozilla/5.0 (Windows NT 10.0; Win64; x64) AppleWebKit/537.36 (KHTML, like Gecko) Chrome/73.0.3683.103 Safari/537.36
# Design number was non-random = 9
#
# The lines below this comment are in groups of 2.
# The formats of the lines in each of these groups are as follows:
#
# Line 1:
#     Col. 1: Time results were received.
#     Col. 2: MD5 hash of participant's IP address.
#     Col. 3: Controller name.
#     Col. 4: Item number.
#     Col. 5: Element number.
#     Col. 6: Type.
#     Col. 7: Group.
#     Col. 8: Field name.
#     Col. 9: Field value.
# Line 2:
#     Col. 1: Time results were received.
#     Col. 2: MD5 hash of participant's IP address.
#     Col. 3: Controller name.
#     Col. 4: Item number.
#     Col. 5: Element number.
#     Col. 6: Type.
#     Col. 7: Group.
#     Col. 8: Question (NULL if none).
#     Col. 9: Answer.
#     Col. 10: Whether or not answer was correct (NULL if N/A).
#     Col. 11: Time taken to answer.
1557266051,b2a70645d6059a4061707c17a30d07dc,Form,1,0,intro,NULL,_REACTION_TIME_,1984
1557266051,b2a70645d6059a4061707c17a30d07dc,Question,5,0,interpret-20,1,<p> You meet your friend Alex in a restaurant%2C but arrive late after she orders. </p> <p> The menu includes a sandwich which costs $15%2C and a soup which costs $10%2C as well pizza and other things. </p> <p> There is a special today. If you order both the sandwich and soup%2C you get a discount. <u> Instead of paying 25 Dollars%2C you pay only 20 Dollars. </u> </p> <p> You ask Alex%2C "What did you order?" </p> <p> She responds%2C "I ordered the sandwich." </p> <p> <b> How likely is it%2C in your opinion%2C that she also ordered soup? </b> </p>,3,NULL,21874
# Columns below this comment are as follows:
# 1. Time results were received.
# 2. MD5 hash of participant's IP address.
# 3. Controller name.
# 4. Item number.
# 5. Element number.
# 6. Type.
# 7. Group.
# 8. Field name.
# 9. Field value.
1557266051,b2a70645d6059a4061707c17a30d07dc,Form,8,0,comprehension,NULL,q1,Alex
1557266051,b2a70645d6059a4061707c17a30d07dc,Form,8,0,comprehension,NULL,q2,20
1557266051,b2a70645d6059a4061707c17a30d07dc,Form,8,0,comprehension,NULL,_REACTION_TIME_,7791
1557266051,b2a70645d6059a4061707c17a30d07dc,Form,9,0,outro,NULL,nativeq,yes
1557266051,b2a70645d6059a4061707c17a30d07dc,Form,9,0,outro,NULL,_REACTION_TIME_,6537
#
# Results on Tuesday May 07 2019 21:54:20 UTC.
# USER AGENT: Mozilla/5.0 (Windows NT 10.0; Win64; x64) AppleWebKit/537.36 (KHTML, like Gecko) Chrome/74.0.3729.131 Safari/537.36
# Design number was non-random = 9
#
# The lines below this comment are in groups of 2.
# The formats of the lines in each of these groups are as follows:
#
# Line 1:
#     Col. 1: Time results were received.
#     Col. 2: MD5 hash of participant's IP address.
#     Col. 3: Controller name.
#     Col. 4: Item number.
#     Col. 5: Element number.
#     Col. 6: Type.
#     Col. 7: Group.
#     Col. 8: Field name.
#     Col. 9: Field value.
# Line 2:
#     Col. 1: Time results were received.
#     Col. 2: MD5 hash of participant's IP address.
#     Col. 3: Controller name.
#     Col. 4: Item number.
#     Col. 5: Element number.
#     Col. 6: Type.
#     Col. 7: Group.
#     Col. 8: Question (NULL if none).
#     Col. 9: Answer.
#     Col. 10: Whether or not answer was correct (NULL if N/A).
#     Col. 11: Time taken to answer.
1557266061,9c80e1fff5657980abeaf4621a76ee42,Form,1,0,intro,NULL,_REACTION_TIME_,7542
1557266061,9c80e1fff5657980abeaf4621a76ee42,Question,5,0,interpret-20,1,<p> You meet your friend Alex in a restaurant%2C but arrive late after she orders. </p> <p> The menu includes a sandwich which costs $15%2C and a soup which costs $10%2C as well pizza and other things. </p> <p> There is a special today. If you order both the sandwich and soup%2C you get a discount. <u> Instead of paying 25 Dollars%2C you pay only 20 Dollars. </u> </p> <p> You ask Alex%2C "What did you order?" </p> <p> She responds%2C "I ordered the sandwich." </p> <p> <b> How likely is it%2C in your opinion%2C that she also ordered soup? </b> </p>,9,NULL,27864
# Columns below this comment are as follows:
# 1. Time results were received.
# 2. MD5 hash of participant's IP address.
# 3. Controller name.
# 4. Item number.
# 5. Element number.
# 6. Type.
# 7. Group.
# 8. Field name.
# 9. Field value.
1557266061,9c80e1fff5657980abeaf4621a76ee42,Form,8,0,comprehension,NULL,q1,Alex
1557266061,9c80e1fff5657980abeaf4621a76ee42,Form,8,0,comprehension,NULL,q2,20
1557266061,9c80e1fff5657980abeaf4621a76ee42,Form,8,0,comprehension,NULL,_REACTION_TIME_,12043
1557266061,9c80e1fff5657980abeaf4621a76ee42,Form,9,0,outro,NULL,nativeq,yes
1557266061,9c80e1fff5657980abeaf4621a76ee42,Form,9,0,outro,NULL,_REACTION_TIME_,19551
#
# Results on Tuesday May 07 2019 21:54:24 UTC.
# USER AGENT: Mozilla/5.0 (Windows NT 10.0; Win64; x64) AppleWebKit/537.36 (KHTML, like Gecko) Chrome/74.0.3729.131 Safari/537.36
# Design number was non-random = 12
#
# The lines below this comment are in groups of 2.
# The formats of the lines in each of these groups are as follows:
#
# Line 1:
#     Col. 1: Time results were received.
#     Col. 2: MD5 hash of participant's IP address.
#     Col. 3: Controller name.
#     Col. 4: Item number.
#     Col. 5: Element number.
#     Col. 6: Type.
#     Col. 7: Group.
#     Col. 8: Field name.
#     Col. 9: Field value.
# Line 2:
#     Col. 1: Time results were received.
#     Col. 2: MD5 hash of participant's IP address.
#     Col. 3: Controller name.
#     Col. 4: Item number.
#     Col. 5: Element number.
#     Col. 6: Type.
#     Col. 7: Group.
#     Col. 8: Question (NULL if none).
#     Col. 9: Answer.
#     Col. 10: Whether or not answer was correct (NULL if N/A).
#     Col. 11: Time taken to answer.
1557266064,67b739da188f7e08ff30d31bc93abfb1,Form,1,0,intro,NULL,_REACTION_TIME_,5547
1557266064,67b739da188f7e08ff30d31bc93abfb1,Question,2,0,interpret-15,1,<p> You meet your friend Alex in a restaurant%2C but arrive late after she orders. </p> <p> The menu includes a sandwich which costs $15%2C and a soup which costs $10%2C as well pizza and other things. </p> <p> There is a special today. If you order both the sandwich and soup%2C you get a discount. <u> Instead of paying 25 Dollars%2C you pay only 15 Dollars. </u> </p> <p> You ask Alex%2C "What did you order?" </p> <p> She responds%2C "I ordered the sandwich." </p> <p> <b> How likely is it%2C in your opinion%2C that she also ordered soup? </b> </p>,10,NULL,6893
# Columns below this comment are as follows:
# 1. Time results were received.
# 2. MD5 hash of participant's IP address.
# 3. Controller name.
# 4. Item number.
# 5. Element number.
# 6. Type.
# 7. Group.
# 8. Field name.
# 9. Field value.
1557266064,67b739da188f7e08ff30d31bc93abfb1,Form,8,0,comprehension,NULL,q1,Alex
1557266064,67b739da188f7e08ff30d31bc93abfb1,Form,8,0,comprehension,NULL,q2,15
1557266064,67b739da188f7e08ff30d31bc93abfb1,Form,8,0,comprehension,NULL,_REACTION_TIME_,5540
1557266064,67b739da188f7e08ff30d31bc93abfb1,Form,9,0,outro,NULL,nativeq,yes
1557266064,67b739da188f7e08ff30d31bc93abfb1,Form,9,0,outro,NULL,_REACTION_TIME_,3747
#
# Results on Tuesday May 07 2019 21:54:56 UTC.
# USER AGENT: Mozilla/5.0 (Windows NT 10.0; Win64; x64) AppleWebKit/537.36 (KHTML, like Gecko) Chrome/74.0.3729.131 Safari/537.36
# Design number was non-random = 10
#
# The lines below this comment are in groups of 2.
# The formats of the lines in each of these groups are as follows:
#
# Line 1:
#     Col. 1: Time results were received.
#     Col. 2: MD5 hash of participant's IP address.
#     Col. 3: Controller name.
#     Col. 4: Item number.
#     Col. 5: Element number.
#     Col. 6: Type.
#     Col. 7: Group.
#     Col. 8: Field name.
#     Col. 9: Field value.
# Line 2:
#     Col. 1: Time results were received.
#     Col. 2: MD5 hash of participant's IP address.
#     Col. 3: Controller name.
#     Col. 4: Item number.
#     Col. 5: Element number.
#     Col. 6: Type.
#     Col. 7: Group.
#     Col. 8: Question (NULL if none).
#     Col. 9: Answer.
#     Col. 10: Whether or not answer was correct (NULL if N/A).
#     Col. 11: Time taken to answer.
1557266096,6c952c34236a543b8d91710e83225ba3,Form,1,0,intro,NULL,_REACTION_TIME_,7349
1557266096,6c952c34236a543b8d91710e83225ba3,Question,6,0,interpret-22,1,<p> You meet your friend Alex in a restaurant%2C but arrive late after she orders. </p> <p> The menu includes a sandwich which costs $15%2C and a soup which costs $10%2C as well pizza and other things. </p> <p> There is a special today. If you order both the sandwich and soup%2C you get a discount. <u> Instead of paying 25 Dollars%2C you pay only 22 Dollars. </u> </p> <p> You ask Alex%2C "What did you order?" </p> <p> She responds%2C "I ordered the sandwich." </p> <p> <b> How likely is it%2C in your opinion%2C that she also ordered soup? </b> </p>,4,NULL,32208
# Columns below this comment are as follows:
# 1. Time results were received.
# 2. MD5 hash of participant's IP address.
# 3. Controller name.
# 4. Item number.
# 5. Element number.
# 6. Type.
# 7. Group.
# 8. Field name.
# 9. Field value.
1557266096,6c952c34236a543b8d91710e83225ba3,Form,8,0,comprehension,NULL,q1,Alex
1557266096,6c952c34236a543b8d91710e83225ba3,Form,8,0,comprehension,NULL,q2,22
1557266096,6c952c34236a543b8d91710e83225ba3,Form,8,0,comprehension,NULL,_REACTION_TIME_,8293
1557266096,6c952c34236a543b8d91710e83225ba3,Form,9,0,outro,NULL,nativeq,yes
1557266096,6c952c34236a543b8d91710e83225ba3,Form,9,0,outro,NULL,_REACTION_TIME_,8364
#
# Results on Tuesday May 07 2019 21:55:06 UTC.
# USER AGENT: Mozilla/5.0 (Macintosh; Intel Mac OS X 10.14; rv:66.0) Gecko/20100101 Firefox/66.0
# Design number was non-random = 9
#
# The lines below this comment are in groups of 2.
# The formats of the lines in each of these groups are as follows:
#
# Line 1:
#     Col. 1: Time results were received.
#     Col. 2: MD5 hash of participant's IP address.
#     Col. 3: Controller name.
#     Col. 4: Item number.
#     Col. 5: Element number.
#     Col. 6: Type.
#     Col. 7: Group.
#     Col. 8: Field name.
#     Col. 9: Field value.
# Line 2:
#     Col. 1: Time results were received.
#     Col. 2: MD5 hash of participant's IP address.
#     Col. 3: Controller name.
#     Col. 4: Item number.
#     Col. 5: Element number.
#     Col. 6: Type.
#     Col. 7: Group.
#     Col. 8: Question (NULL if none).
#     Col. 9: Answer.
#     Col. 10: Whether or not answer was correct (NULL if N/A).
#     Col. 11: Time taken to answer.
1557266107,c0881eb60ae5b7b99e16133e865ae97a,Form,1,0,intro,NULL,_REACTION_TIME_,17691
1557266107,c0881eb60ae5b7b99e16133e865ae97a,Question,5,0,interpret-20,1,<p> You meet your friend Alex in a restaurant%2C but arrive late after she orders. </p> <p> The menu includes a sandwich which costs $15%2C and a soup which costs $10%2C as well pizza and other things. </p> <p> There is a special today. If you order both the sandwich and soup%2C you get a discount. <u> Instead of paying 25 Dollars%2C you pay only 20 Dollars. </u> </p> <p> You ask Alex%2C "What did you order?" </p> <p> She responds%2C "I ordered the sandwich." </p> <p> <b> How likely is it%2C in your opinion%2C that she also ordered soup? </b> </p>,5,NULL,36194
# Columns below this comment are as follows:
# 1. Time results were received.
# 2. MD5 hash of participant's IP address.
# 3. Controller name.
# 4. Item number.
# 5. Element number.
# 6. Type.
# 7. Group.
# 8. Field name.
# 9. Field value.
1557266107,c0881eb60ae5b7b99e16133e865ae97a,Form,8,0,comprehension,NULL,q1,Alex
1557266107,c0881eb60ae5b7b99e16133e865ae97a,Form,8,0,comprehension,NULL,q2,20
1557266107,c0881eb60ae5b7b99e16133e865ae97a,Form,8,0,comprehension,NULL,_REACTION_TIME_,9774
1557266107,c0881eb60ae5b7b99e16133e865ae97a,Form,9,0,outro,NULL,nativeq,yes
1557266107,c0881eb60ae5b7b99e16133e865ae97a,Form,9,0,outro,NULL,_REACTION_TIME_,23332
#
# Results on Tuesday May 07 2019 21:55:20 UTC.
# USER AGENT: Mozilla/5.0 (X11; CrOS x86_64 11647.154.0) AppleWebKit/537.36 (KHTML, like Gecko) Chrome/73.0.3683.114 Safari/537.36
# Design number was non-random = 12
#
# The lines below this comment are in groups of 2.
# The formats of the lines in each of these groups are as follows:
#
# Line 1:
#     Col. 1: Time results were received.
#     Col. 2: MD5 hash of participant's IP address.
#     Col. 3: Controller name.
#     Col. 4: Item number.
#     Col. 5: Element number.
#     Col. 6: Type.
#     Col. 7: Group.
#     Col. 8: Field name.
#     Col. 9: Field value.
# Line 2:
#     Col. 1: Time results were received.
#     Col. 2: MD5 hash of participant's IP address.
#     Col. 3: Controller name.
#     Col. 4: Item number.
#     Col. 5: Element number.
#     Col. 6: Type.
#     Col. 7: Group.
#     Col. 8: Question (NULL if none).
#     Col. 9: Answer.
#     Col. 10: Whether or not answer was correct (NULL if N/A).
#     Col. 11: Time taken to answer.
1557266120,be924af67470d44c28c9abf0505c38b9,Form,1,0,intro,NULL,_REACTION_TIME_,8136
1557266120,be924af67470d44c28c9abf0505c38b9,Question,2,0,interpret-15,1,<p> You meet your friend Alex in a restaurant%2C but arrive late after she orders. </p> <p> The menu includes a sandwich which costs $15%2C and a soup which costs $10%2C as well pizza and other things. </p> <p> There is a special today. If you order both the sandwich and soup%2C you get a discount. <u> Instead of paying 25 Dollars%2C you pay only 15 Dollars. </u> </p> <p> You ask Alex%2C "What did you order?" </p> <p> She responds%2C "I ordered the sandwich." </p> <p> <b> How likely is it%2C in your opinion%2C that she also ordered soup? </b> </p>,3,NULL,31248
# Columns below this comment are as follows:
# 1. Time results were received.
# 2. MD5 hash of participant's IP address.
# 3. Controller name.
# 4. Item number.
# 5. Element number.
# 6. Type.
# 7. Group.
# 8. Field name.
# 9. Field value.
1557266120,be924af67470d44c28c9abf0505c38b9,Form,8,0,comprehension,NULL,q1,Alex
1557266120,be924af67470d44c28c9abf0505c38b9,Form,8,0,comprehension,NULL,q2,15
1557266120,be924af67470d44c28c9abf0505c38b9,Form,8,0,comprehension,NULL,_REACTION_TIME_,10821
1557266120,be924af67470d44c28c9abf0505c38b9,Form,9,0,outro,NULL,nativeq,yes
1557266120,be924af67470d44c28c9abf0505c38b9,Form,9,0,outro,NULL,_REACTION_TIME_,21205
#
# Results on Tuesday May 07 2019 21:55:31 UTC.
# USER AGENT: Mozilla/5.0 (Windows NT 10.0; Win64; x64) AppleWebKit/537.36 (KHTML, like Gecko) Chrome/74.0.3729.131 Safari/537.36
# Design number was non-random = 16
#
# The lines below this comment are in groups of 2.
# The formats of the lines in each of these groups are as follows:
#
# Line 1:
#     Col. 1: Time results were received.
#     Col. 2: MD5 hash of participant's IP address.
#     Col. 3: Controller name.
#     Col. 4: Item number.
#     Col. 5: Element number.
#     Col. 6: Type.
#     Col. 7: Group.
#     Col. 8: Field name.
#     Col. 9: Field value.
# Line 2:
#     Col. 1: Time results were received.
#     Col. 2: MD5 hash of participant's IP address.
#     Col. 3: Controller name.
#     Col. 4: Item number.
#     Col. 5: Element number.
#     Col. 6: Type.
#     Col. 7: Group.
#     Col. 8: Question (NULL if none).
#     Col. 9: Answer.
#     Col. 10: Whether or not answer was correct (NULL if N/A).
#     Col. 11: Time taken to answer.
1557266132,b89880e4f2fad607fa3ccd277ce3604b,Form,1,0,intro,NULL,_REACTION_TIME_,4926
1557266132,b89880e4f2fad607fa3ccd277ce3604b,Question,6,0,interpret-22,1,<p> You meet your friend Alex in a restaurant%2C but arrive late after she orders. </p> <p> The menu includes a sandwich which costs $15%2C and a soup which costs $10%2C as well pizza and other things. </p> <p> There is a special today. If you order both the sandwich and soup%2C you get a discount. <u> Instead of paying 25 Dollars%2C you pay only 22 Dollars. </u> </p> <p> You ask Alex%2C "What did you order?" </p> <p> She responds%2C "I ordered the sandwich." </p> <p> <b> How likely is it%2C in your opinion%2C that she also ordered soup? </b> </p>,6,NULL,13705
# Columns below this comment are as follows:
# 1. Time results were received.
# 2. MD5 hash of participant's IP address.
# 3. Controller name.
# 4. Item number.
# 5. Element number.
# 6. Type.
# 7. Group.
# 8. Field name.
# 9. Field value.
1557266132,b89880e4f2fad607fa3ccd277ce3604b,Form,8,0,comprehension,NULL,q1,Alex
1557266132,b89880e4f2fad607fa3ccd277ce3604b,Form,8,0,comprehension,NULL,q2,22
1557266132,b89880e4f2fad607fa3ccd277ce3604b,Form,8,0,comprehension,NULL,_REACTION_TIME_,6155
1557266132,b89880e4f2fad607fa3ccd277ce3604b,Form,9,0,outro,NULL,nativeq,yes
1557266132,b89880e4f2fad607fa3ccd277ce3604b,Form,9,0,outro,NULL,_REACTION_TIME_,3413
#
# Results on Tuesday May 07 2019 21:55:55 UTC.
# USER AGENT: Mozilla/5.0 (Windows NT 6.1) AppleWebKit/537.36 (KHTML, like Gecko) Chrome/74.0.3729.131 Safari/537.36
# Design number was non-random = 17
#
# The lines below this comment are in groups of 2.
# The formats of the lines in each of these groups are as follows:
#
# Line 1:
#     Col. 1: Time results were received.
#     Col. 2: MD5 hash of participant's IP address.
#     Col. 3: Controller name.
#     Col. 4: Item number.
#     Col. 5: Element number.
#     Col. 6: Type.
#     Col. 7: Group.
#     Col. 8: Field name.
#     Col. 9: Field value.
# Line 2:
#     Col. 1: Time results were received.
#     Col. 2: MD5 hash of participant's IP address.
#     Col. 3: Controller name.
#     Col. 4: Item number.
#     Col. 5: Element number.
#     Col. 6: Type.
#     Col. 7: Group.
#     Col. 8: Question (NULL if none).
#     Col. 9: Answer.
#     Col. 10: Whether or not answer was correct (NULL if N/A).
#     Col. 11: Time taken to answer.
1557266155,fdcc3c886884f561b2b643b10d017f34,Form,1,0,intro,NULL,_REACTION_TIME_,3271
1557266155,fdcc3c886884f561b2b643b10d017f34,Question,7,0,interpret-24,1,<p> You meet your friend Alex in a restaurant%2C but arrive late after she orders. </p> <p> The menu includes a sandwich which costs $15%2C and a soup which costs $10%2C as well pizza and other things. </p> <p> There is a special today. If you order both the sandwich and soup%2C you get a discount. <u> Instead of paying 25 Dollars%2C you pay only 24 Dollars. </u> </p> <p> You ask Alex%2C "What did you order?" </p> <p> She responds%2C "I ordered the sandwich." </p> <p> <b> How likely is it%2C in your opinion%2C that she also ordered soup? </b> </p>,1,NULL,24583
# Columns below this comment are as follows:
# 1. Time results were received.
# 2. MD5 hash of participant's IP address.
# 3. Controller name.
# 4. Item number.
# 5. Element number.
# 6. Type.
# 7. Group.
# 8. Field name.
# 9. Field value.
1557266155,fdcc3c886884f561b2b643b10d017f34,Form,8,0,comprehension,NULL,q1,Alex
1557266155,fdcc3c886884f561b2b643b10d017f34,Form,8,0,comprehension,NULL,q2,24
1557266155,fdcc3c886884f561b2b643b10d017f34,Form,8,0,comprehension,NULL,_REACTION_TIME_,6685
1557266155,fdcc3c886884f561b2b643b10d017f34,Form,9,0,outro,NULL,nativeq,yes
1557266155,fdcc3c886884f561b2b643b10d017f34,Form,9,0,outro,NULL,_REACTION_TIME_,9216
#
# Results on Tuesday May 07 2019 21:56:21 UTC.
# USER AGENT: Mozilla/5.0 (Windows NT 6.1; WOW64) AppleWebKit/537.36 (KHTML, like Gecko) Chrome/73.0.3683.103 Safari/537.36
# Design number was non-random = 19
#
# The lines below this comment are in groups of 2.
# The formats of the lines in each of these groups are as follows:
#
# Line 1:
#     Col. 1: Time results were received.
#     Col. 2: MD5 hash of participant's IP address.
#     Col. 3: Controller name.
#     Col. 4: Item number.
#     Col. 5: Element number.
#     Col. 6: Type.
#     Col. 7: Group.
#     Col. 8: Field name.
#     Col. 9: Field value.
# Line 2:
#     Col. 1: Time results were received.
#     Col. 2: MD5 hash of participant's IP address.
#     Col. 3: Controller name.
#     Col. 4: Item number.
#     Col. 5: Element number.
#     Col. 6: Type.
#     Col. 7: Group.
#     Col. 8: Question (NULL if none).
#     Col. 9: Answer.
#     Col. 10: Whether or not answer was correct (NULL if N/A).
#     Col. 11: Time taken to answer.
1557266181,7291d68a50e3ffe843ad18fc5030f0ba,Form,1,0,intro,NULL,_REACTION_TIME_,1600
1557266181,7291d68a50e3ffe843ad18fc5030f0ba,Question,3,0,interpret-16,1,<p> You meet your friend Alex in a restaurant%2C but arrive late after she orders. </p> <p> The menu includes a sandwich which costs $15%2C and a soup which costs $10%2C as well pizza and other things. </p> <p> There is a special today. If you order both the sandwich and soup%2C you get a discount. <u> Instead of paying 25 Dollars%2C you pay only 16 Dollars. </u> </p> <p> You ask Alex%2C "What did you order?" </p> <p> She responds%2C "I ordered the sandwich." </p> <p> <b> How likely is it%2C in your opinion%2C that she also ordered soup? </b> </p>,2,NULL,17658
# Columns below this comment are as follows:
# 1. Time results were received.
# 2. MD5 hash of participant's IP address.
# 3. Controller name.
# 4. Item number.
# 5. Element number.
# 6. Type.
# 7. Group.
# 8. Field name.
# 9. Field value.
1557266181,7291d68a50e3ffe843ad18fc5030f0ba,Form,8,0,comprehension,NULL,q1,Alex
1557266181,7291d68a50e3ffe843ad18fc5030f0ba,Form,8,0,comprehension,NULL,q2,15
1557266181,7291d68a50e3ffe843ad18fc5030f0ba,Form,8,0,comprehension,NULL,_REACTION_TIME_,6901
1557266181,7291d68a50e3ffe843ad18fc5030f0ba,Form,9,0,outro,NULL,nativeq,yes
1557266181,7291d68a50e3ffe843ad18fc5030f0ba,Form,9,0,outro,NULL,_REACTION_TIME_,3837
#
# Results on Tuesday May 07 2019 21:56:53 UTC.
# USER AGENT: Mozilla/5.0 (Macintosh; Intel Mac OS X 10_14_4) AppleWebKit/537.36 (KHTML, like Gecko) Chrome/73.0.3683.103 Safari/537.36
# Design number was non-random = 21
#
# The lines below this comment are in groups of 2.
# The formats of the lines in each of these groups are as follows:
#
# Line 1:
#     Col. 1: Time results were received.
#     Col. 2: MD5 hash of participant's IP address.
#     Col. 3: Controller name.
#     Col. 4: Item number.
#     Col. 5: Element number.
#     Col. 6: Type.
#     Col. 7: Group.
#     Col. 8: Field name.
#     Col. 9: Field value.
# Line 2:
#     Col. 1: Time results were received.
#     Col. 2: MD5 hash of participant's IP address.
#     Col. 3: Controller name.
#     Col. 4: Item number.
#     Col. 5: Element number.
#     Col. 6: Type.
#     Col. 7: Group.
#     Col. 8: Question (NULL if none).
#     Col. 9: Answer.
#     Col. 10: Whether or not answer was correct (NULL if N/A).
#     Col. 11: Time taken to answer.
1557266213,8c03af558deb24ca429887134b55e485,Form,1,0,intro,NULL,_REACTION_TIME_,1818
1557266213,8c03af558deb24ca429887134b55e485,Question,5,0,interpret-20,1,<p> You meet your friend Alex in a restaurant%2C but arrive late after she orders. </p> <p> The menu includes a sandwich which costs $15%2C and a soup which costs $10%2C as well pizza and other things. </p> <p> There is a special today. If you order both the sandwich and soup%2C you get a discount. <u> Instead of paying 25 Dollars%2C you pay only 20 Dollars. </u> </p> <p> You ask Alex%2C "What did you order?" </p> <p> She responds%2C "I ordered the sandwich." </p> <p> <b> How likely is it%2C in your opinion%2C that she also ordered soup? </b> </p>,3,NULL,11955
# Columns below this comment are as follows:
# 1. Time results were received.
# 2. MD5 hash of participant's IP address.
# 3. Controller name.
# 4. Item number.
# 5. Element number.
# 6. Type.
# 7. Group.
# 8. Field name.
# 9. Field value.
1557266213,8c03af558deb24ca429887134b55e485,Form,8,0,comprehension,NULL,q1,Sam
1557266213,8c03af558deb24ca429887134b55e485,Form,8,0,comprehension,NULL,q2,20
1557266213,8c03af558deb24ca429887134b55e485,Form,8,0,comprehension,NULL,_REACTION_TIME_,5636
1557266213,8c03af558deb24ca429887134b55e485,Form,9,0,outro,NULL,nativeq,yes
1557266213,8c03af558deb24ca429887134b55e485,Form,9,0,outro,NULL,_REACTION_TIME_,3127
#
# Results on Tuesday May 07 2019 21:57:18 UTC.
# USER AGENT: Mozilla/5.0 (Windows NT 10.0; Win64; x64) AppleWebKit/537.36 (KHTML, like Gecko) Chrome/74.0.3729.131 Safari/537.36
# Design number was non-random = 21
#
# The lines below this comment are in groups of 2.
# The formats of the lines in each of these groups are as follows:
#
# Line 1:
#     Col. 1: Time results were received.
#     Col. 2: MD5 hash of participant's IP address.
#     Col. 3: Controller name.
#     Col. 4: Item number.
#     Col. 5: Element number.
#     Col. 6: Type.
#     Col. 7: Group.
#     Col. 8: Field name.
#     Col. 9: Field value.
# Line 2:
#     Col. 1: Time results were received.
#     Col. 2: MD5 hash of participant's IP address.
#     Col. 3: Controller name.
#     Col. 4: Item number.
#     Col. 5: Element number.
#     Col. 6: Type.
#     Col. 7: Group.
#     Col. 8: Question (NULL if none).
#     Col. 9: Answer.
#     Col. 10: Whether or not answer was correct (NULL if N/A).
#     Col. 11: Time taken to answer.
1557266239,f88cd53281c8acf8b51b8615e7da7a76,Form,1,0,intro,NULL,_REACTION_TIME_,5840
1557266239,f88cd53281c8acf8b51b8615e7da7a76,Question,5,0,interpret-20,1,<p> You meet your friend Alex in a restaurant%2C but arrive late after she orders. </p> <p> The menu includes a sandwich which costs $15%2C and a soup which costs $10%2C as well pizza and other things. </p> <p> There is a special today. If you order both the sandwich and soup%2C you get a discount. <u> Instead of paying 25 Dollars%2C you pay only 20 Dollars. </u> </p> <p> You ask Alex%2C "What did you order?" </p> <p> She responds%2C "I ordered the sandwich." </p> <p> <b> How likely is it%2C in your opinion%2C that she also ordered soup? </b> </p>,3,NULL,31319
# Columns below this comment are as follows:
# 1. Time results were received.
# 2. MD5 hash of participant's IP address.
# 3. Controller name.
# 4. Item number.
# 5. Element number.
# 6. Type.
# 7. Group.
# 8. Field name.
# 9. Field value.
1557266239,f88cd53281c8acf8b51b8615e7da7a76,Form,8,0,comprehension,NULL,q1,Alex
1557266239,f88cd53281c8acf8b51b8615e7da7a76,Form,8,0,comprehension,NULL,q2,20
1557266239,f88cd53281c8acf8b51b8615e7da7a76,Form,8,0,comprehension,NULL,_REACTION_TIME_,7606
1557266239,f88cd53281c8acf8b51b8615e7da7a76,Form,9,0,outro,NULL,nativeq,yes
1557266239,f88cd53281c8acf8b51b8615e7da7a76,Form,9,0,outro,NULL,_REACTION_TIME_,10865
#
# Results on Tuesday May 07 2019 21:57:44 UTC.
# USER AGENT: Mozilla/5.0 (Macintosh; Intel Mac OS X 10_14_0) AppleWebKit/537.36 (KHTML, like Gecko) Chrome/73.0.3683.103 Safari/537.36
# Design number was non-random = 22
#
# The lines below this comment are in groups of 2.
# The formats of the lines in each of these groups are as follows:
#
# Line 1:
#     Col. 1: Time results were received.
#     Col. 2: MD5 hash of participant's IP address.
#     Col. 3: Controller name.
#     Col. 4: Item number.
#     Col. 5: Element number.
#     Col. 6: Type.
#     Col. 7: Group.
#     Col. 8: Field name.
#     Col. 9: Field value.
# Line 2:
#     Col. 1: Time results were received.
#     Col. 2: MD5 hash of participant's IP address.
#     Col. 3: Controller name.
#     Col. 4: Item number.
#     Col. 5: Element number.
#     Col. 6: Type.
#     Col. 7: Group.
#     Col. 8: Question (NULL if none).
#     Col. 9: Answer.
#     Col. 10: Whether or not answer was correct (NULL if N/A).
#     Col. 11: Time taken to answer.
1557266265,24e8ee17773651ee72d21c7880c9dc0c,Form,1,0,intro,NULL,_REACTION_TIME_,2531
1557266265,24e8ee17773651ee72d21c7880c9dc0c,Question,6,0,interpret-22,1,<p> You meet your friend Alex in a restaurant%2C but arrive late after she orders. </p> <p> The menu includes a sandwich which costs $15%2C and a soup which costs $10%2C as well pizza and other things. </p> <p> There is a special today. If you order both the sandwich and soup%2C you get a discount. <u> Instead of paying 25 Dollars%2C you pay only 22 Dollars. </u> </p> <p> You ask Alex%2C "What did you order?" </p> <p> She responds%2C "I ordered the sandwich." </p> <p> <b> How likely is it%2C in your opinion%2C that she also ordered soup? </b> </p>,5,NULL,15946
# Columns below this comment are as follows:
# 1. Time results were received.
# 2. MD5 hash of participant's IP address.
# 3. Controller name.
# 4. Item number.
# 5. Element number.
# 6. Type.
# 7. Group.
# 8. Field name.
# 9. Field value.
1557266265,24e8ee17773651ee72d21c7880c9dc0c,Form,8,0,comprehension,NULL,q1,Alex
1557266265,24e8ee17773651ee72d21c7880c9dc0c,Form,8,0,comprehension,NULL,q2,22
1557266265,24e8ee17773651ee72d21c7880c9dc0c,Form,8,0,comprehension,NULL,_REACTION_TIME_,5333
1557266265,24e8ee17773651ee72d21c7880c9dc0c,Form,9,0,outro,NULL,nativeq,yes
1557266265,24e8ee17773651ee72d21c7880c9dc0c,Form,9,0,outro,NULL,_REACTION_TIME_,9941
#
# Results on Tuesday May 07 2019 21:59:10 UTC.
# USER AGENT: Mozilla/5.0 (Windows NT 10.0) AppleWebKit/537.36 (KHTML, like Gecko) Chrome/74.0.3729.131 Safari/537.36
# Design number was non-random = 24
#
# The lines below this comment are in groups of 2.
# The formats of the lines in each of these groups are as follows:
#
# Line 1:
#     Col. 1: Time results were received.
#     Col. 2: MD5 hash of participant's IP address.
#     Col. 3: Controller name.
#     Col. 4: Item number.
#     Col. 5: Element number.
#     Col. 6: Type.
#     Col. 7: Group.
#     Col. 8: Field name.
#     Col. 9: Field value.
# Line 2:
#     Col. 1: Time results were received.
#     Col. 2: MD5 hash of participant's IP address.
#     Col. 3: Controller name.
#     Col. 4: Item number.
#     Col. 5: Element number.
#     Col. 6: Type.
#     Col. 7: Group.
#     Col. 8: Question (NULL if none).
#     Col. 9: Answer.
#     Col. 10: Whether or not answer was correct (NULL if N/A).
#     Col. 11: Time taken to answer.
1557266351,01c2c5c3b809e826abb9bbe7dabb46bf,Form,1,0,intro,NULL,_REACTION_TIME_,42863
1557266351,01c2c5c3b809e826abb9bbe7dabb46bf,Question,2,0,interpret-15,1,<p> You meet your friend Alex in a restaurant%2C but arrive late after she orders. </p> <p> The menu includes a sandwich which costs $15%2C and a soup which costs $10%2C as well pizza and other things. </p> <p> There is a special today. If you order both the sandwich and soup%2C you get a discount. <u> Instead of paying 25 Dollars%2C you pay only 15 Dollars. </u> </p> <p> You ask Alex%2C "What did you order?" </p> <p> She responds%2C "I ordered the sandwich." </p> <p> <b> How likely is it%2C in your opinion%2C that she also ordered soup? </b> </p>,3,NULL,18328
# Columns below this comment are as follows:
# 1. Time results were received.
# 2. MD5 hash of participant's IP address.
# 3. Controller name.
# 4. Item number.
# 5. Element number.
# 6. Type.
# 7. Group.
# 8. Field name.
# 9. Field value.
1557266351,01c2c5c3b809e826abb9bbe7dabb46bf,Form,8,0,comprehension,NULL,q1,Alex
1557266351,01c2c5c3b809e826abb9bbe7dabb46bf,Form,8,0,comprehension,NULL,q2,15
1557266351,01c2c5c3b809e826abb9bbe7dabb46bf,Form,8,0,comprehension,NULL,_REACTION_TIME_,7834
1557266351,01c2c5c3b809e826abb9bbe7dabb46bf,Form,9,0,outro,NULL,nativeq,yes
1557266351,01c2c5c3b809e826abb9bbe7dabb46bf,Form,9,0,outro,NULL,_REACTION_TIME_,7303
#
# Results on Tuesday May 07 2019 21:59:16 UTC.
# USER AGENT: Mozilla/5.0 (Linux; Android 8.0.0; SM-G950U) AppleWebKit/537.36 (KHTML, like Gecko) Chrome/73.0.3683.90 Mobile Safari/537.36
# Design number was non-random = 24
#
# The lines below this comment are in groups of 2.
# The formats of the lines in each of these groups are as follows:
#
# Line 1:
#     Col. 1: Time results were received.
#     Col. 2: MD5 hash of participant's IP address.
#     Col. 3: Controller name.
#     Col. 4: Item number.
#     Col. 5: Element number.
#     Col. 6: Type.
#     Col. 7: Group.
#     Col. 8: Field name.
#     Col. 9: Field value.
# Line 2:
#     Col. 1: Time results were received.
#     Col. 2: MD5 hash of participant's IP address.
#     Col. 3: Controller name.
#     Col. 4: Item number.
#     Col. 5: Element number.
#     Col. 6: Type.
#     Col. 7: Group.
#     Col. 8: Question (NULL if none).
#     Col. 9: Answer.
#     Col. 10: Whether or not answer was correct (NULL if N/A).
#     Col. 11: Time taken to answer.
1557266356,f11d6e085a0049b790d213862b51c97d,Form,1,0,intro,NULL,_REACTION_TIME_,12897
1557266356,f11d6e085a0049b790d213862b51c97d,Question,2,0,interpret-15,1,<p> You meet your friend Alex in a restaurant%2C but arrive late after she orders. </p> <p> The menu includes a sandwich which costs $15%2C and a soup which costs $10%2C as well pizza and other things. </p> <p> There is a special today. If you order both the sandwich and soup%2C you get a discount. <u> Instead of paying 25 Dollars%2C you pay only 15 Dollars. </u> </p> <p> You ask Alex%2C "What did you order?" </p> <p> She responds%2C "I ordered the sandwich." </p> <p> <b> How likely is it%2C in your opinion%2C that she also ordered soup? </b> </p>,2,NULL,27890
# Columns below this comment are as follows:
# 1. Time results were received.
# 2. MD5 hash of participant's IP address.
# 3. Controller name.
# 4. Item number.
# 5. Element number.
# 6. Type.
# 7. Group.
# 8. Field name.
# 9. Field value.
1557266356,f11d6e085a0049b790d213862b51c97d,Form,8,0,comprehension,NULL,q1,Alex
1557266356,f11d6e085a0049b790d213862b51c97d,Form,8,0,comprehension,NULL,q2,15
1557266356,f11d6e085a0049b790d213862b51c97d,Form,8,0,comprehension,NULL,_REACTION_TIME_,9639
1557266356,f11d6e085a0049b790d213862b51c97d,Form,9,0,outro,NULL,nativeq,yes
1557266356,f11d6e085a0049b790d213862b51c97d,Form,9,0,outro,NULL,_REACTION_TIME_,10073
#
# Results on Tuesday May 07 2019 22:00:21 UTC.
# USER AGENT: Mozilla/5.0 (X11; CrOS x86_64 11647.154.0) AppleWebKit/537.36 (KHTML, like Gecko) Chrome/73.0.3683.114 Safari/537.36
# Design number was non-random = 26
#
# The lines below this comment are in groups of 2.
# The formats of the lines in each of these groups are as follows:
#
# Line 1:
#     Col. 1: Time results were received.
#     Col. 2: MD5 hash of participant's IP address.
#     Col. 3: Controller name.
#     Col. 4: Item number.
#     Col. 5: Element number.
#     Col. 6: Type.
#     Col. 7: Group.
#     Col. 8: Field name.
#     Col. 9: Field value.
# Line 2:
#     Col. 1: Time results were received.
#     Col. 2: MD5 hash of participant's IP address.
#     Col. 3: Controller name.
#     Col. 4: Item number.
#     Col. 5: Element number.
#     Col. 6: Type.
#     Col. 7: Group.
#     Col. 8: Question (NULL if none).
#     Col. 9: Answer.
#     Col. 10: Whether or not answer was correct (NULL if N/A).
#     Col. 11: Time taken to answer.
1557266422,665b21753f0d27b37f6cbffbbb95ba0f,Form,1,0,intro,NULL,_REACTION_TIME_,11796
1557266422,665b21753f0d27b37f6cbffbbb95ba0f,Question,4,0,interpret-18,1,<p> You meet your friend Alex in a restaurant%2C but arrive late after she orders. </p> <p> The menu includes a sandwich which costs $15%2C and a soup which costs $10%2C as well pizza and other things. </p> <p> There is a special today. If you order both the sandwich and soup%2C you get a discount. <u> Instead of paying 25 Dollars%2C you pay only 18 Dollars. </u> </p> <p> You ask Alex%2C "What did you order?" </p> <p> She responds%2C "I ordered the sandwich." </p> <p> <b> How likely is it%2C in your opinion%2C that she also ordered soup? </b> </p>,3,NULL,27882
# Columns below this comment are as follows:
# 1. Time results were received.
# 2. MD5 hash of participant's IP address.
# 3. Controller name.
# 4. Item number.
# 5. Element number.
# 6. Type.
# 7. Group.
# 8. Field name.
# 9. Field value.
1557266422,665b21753f0d27b37f6cbffbbb95ba0f,Form,8,0,comprehension,NULL,q1,Alex
1557266422,665b21753f0d27b37f6cbffbbb95ba0f,Form,8,0,comprehension,NULL,q2,18
1557266422,665b21753f0d27b37f6cbffbbb95ba0f,Form,8,0,comprehension,NULL,_REACTION_TIME_,7201
1557266422,665b21753f0d27b37f6cbffbbb95ba0f,Form,9,0,outro,NULL,nativeq,yes
1557266422,665b21753f0d27b37f6cbffbbb95ba0f,Form,9,0,outro,NULL,_REACTION_TIME_,6385
#
# Results on Tuesday May 07 2019 22:00:30 UTC.
# USER AGENT: Mozilla/5.0 (Windows NT 10.0; Win64; x64) AppleWebKit/537.36 (KHTML, like Gecko) Chrome/74.0.3729.131 Safari/537.36
# Design number was non-random = 26
#
# The lines below this comment are in groups of 2.
# The formats of the lines in each of these groups are as follows:
#
# Line 1:
#     Col. 1: Time results were received.
#     Col. 2: MD5 hash of participant's IP address.
#     Col. 3: Controller name.
#     Col. 4: Item number.
#     Col. 5: Element number.
#     Col. 6: Type.
#     Col. 7: Group.
#     Col. 8: Field name.
#     Col. 9: Field value.
# Line 2:
#     Col. 1: Time results were received.
#     Col. 2: MD5 hash of participant's IP address.
#     Col. 3: Controller name.
#     Col. 4: Item number.
#     Col. 5: Element number.
#     Col. 6: Type.
#     Col. 7: Group.
#     Col. 8: Question (NULL if none).
#     Col. 9: Answer.
#     Col. 10: Whether or not answer was correct (NULL if N/A).
#     Col. 11: Time taken to answer.
1557266431,930b9814ac53fc9d8002a6ad0bfc03f1,Form,1,0,intro,NULL,_REACTION_TIME_,4345
1557266431,930b9814ac53fc9d8002a6ad0bfc03f1,Question,4,0,interpret-18,1,<p> You meet your friend Alex in a restaurant%2C but arrive late after she orders. </p> <p> The menu includes a sandwich which costs $15%2C and a soup which costs $10%2C as well pizza and other things. </p> <p> There is a special today. If you order both the sandwich and soup%2C you get a discount. <u> Instead of paying 25 Dollars%2C you pay only 18 Dollars. </u> </p> <p> You ask Alex%2C "What did you order?" </p> <p> She responds%2C "I ordered the sandwich." </p> <p> <b> How likely is it%2C in your opinion%2C that she also ordered soup? </b> </p>,4,NULL,32487
# Columns below this comment are as follows:
# 1. Time results were received.
# 2. MD5 hash of participant's IP address.
# 3. Controller name.
# 4. Item number.
# 5. Element number.
# 6. Type.
# 7. Group.
# 8. Field name.
# 9. Field value.
1557266431,930b9814ac53fc9d8002a6ad0bfc03f1,Form,8,0,comprehension,NULL,q1,Alex
1557266431,930b9814ac53fc9d8002a6ad0bfc03f1,Form,8,0,comprehension,NULL,q2,15
1557266431,930b9814ac53fc9d8002a6ad0bfc03f1,Form,8,0,comprehension,NULL,_REACTION_TIME_,6038
1557266431,930b9814ac53fc9d8002a6ad0bfc03f1,Form,9,0,outro,NULL,nativeq,yes
1557266431,930b9814ac53fc9d8002a6ad0bfc03f1,Form,9,0,outro,NULL,_REACTION_TIME_,14733
#
# Results on Tuesday May 07 2019 22:00:47 UTC.
# USER AGENT: Mozilla/5.0 (Windows NT 10.0; Win64; x64) AppleWebKit/537.36 (KHTML, like Gecko) Chrome/73.0.3683.103 Safari/537.36
# Design number was non-random = 26
#
# The lines below this comment are in groups of 2.
# The formats of the lines in each of these groups are as follows:
#
# Line 1:
#     Col. 1: Time results were received.
#     Col. 2: MD5 hash of participant's IP address.
#     Col. 3: Controller name.
#     Col. 4: Item number.
#     Col. 5: Element number.
#     Col. 6: Type.
#     Col. 7: Group.
#     Col. 8: Field name.
#     Col. 9: Field value.
# Line 2:
#     Col. 1: Time results were received.
#     Col. 2: MD5 hash of participant's IP address.
#     Col. 3: Controller name.
#     Col. 4: Item number.
#     Col. 5: Element number.
#     Col. 6: Type.
#     Col. 7: Group.
#     Col. 8: Question (NULL if none).
#     Col. 9: Answer.
#     Col. 10: Whether or not answer was correct (NULL if N/A).
#     Col. 11: Time taken to answer.
1557266448,5cd699d130318fd00b7a38c81a64a0f1,Form,1,0,intro,NULL,_REACTION_TIME_,2581
1557266448,5cd699d130318fd00b7a38c81a64a0f1,Question,4,0,interpret-18,1,<p> You meet your friend Alex in a restaurant%2C but arrive late after she orders. </p> <p> The menu includes a sandwich which costs $15%2C and a soup which costs $10%2C as well pizza and other things. </p> <p> There is a special today. If you order both the sandwich and soup%2C you get a discount. <u> Instead of paying 25 Dollars%2C you pay only 18 Dollars. </u> </p> <p> You ask Alex%2C "What did you order?" </p> <p> She responds%2C "I ordered the sandwich." </p> <p> <b> How likely is it%2C in your opinion%2C that she also ordered soup? </b> </p>,4,NULL,44427
# Columns below this comment are as follows:
# 1. Time results were received.
# 2. MD5 hash of participant's IP address.
# 3. Controller name.
# 4. Item number.
# 5. Element number.
# 6. Type.
# 7. Group.
# 8. Field name.
# 9. Field value.
1557266448,5cd699d130318fd00b7a38c81a64a0f1,Form,8,0,comprehension,NULL,q1,Alex
1557266448,5cd699d130318fd00b7a38c81a64a0f1,Form,8,0,comprehension,NULL,q2,18
1557266448,5cd699d130318fd00b7a38c81a64a0f1,Form,8,0,comprehension,NULL,_REACTION_TIME_,6878
1557266448,5cd699d130318fd00b7a38c81a64a0f1,Form,9,0,outro,NULL,nativeq,yes
1557266448,5cd699d130318fd00b7a38c81a64a0f1,Form,9,0,outro,NULL,_REACTION_TIME_,4814
#
# Results on Tuesday May 07 2019 22:01:37 UTC.
# USER AGENT: Mozilla/5.0 (Macintosh; Intel Mac OS X 10_14_4) AppleWebKit/537.36 (KHTML, like Gecko) Chrome/74.0.3729.131 Safari/537.36
# Design number was non-random = 28
#
# The lines below this comment are in groups of 2.
# The formats of the lines in each of these groups are as follows:
#
# Line 1:
#     Col. 1: Time results were received.
#     Col. 2: MD5 hash of participant's IP address.
#     Col. 3: Controller name.
#     Col. 4: Item number.
#     Col. 5: Element number.
#     Col. 6: Type.
#     Col. 7: Group.
#     Col. 8: Field name.
#     Col. 9: Field value.
# Line 2:
#     Col. 1: Time results were received.
#     Col. 2: MD5 hash of participant's IP address.
#     Col. 3: Controller name.
#     Col. 4: Item number.
#     Col. 5: Element number.
#     Col. 6: Type.
#     Col. 7: Group.
#     Col. 8: Question (NULL if none).
#     Col. 9: Answer.
#     Col. 10: Whether or not answer was correct (NULL if N/A).
#     Col. 11: Time taken to answer.
1557266498,7c0d78e2ec2bc9809cdbe214274b2e5b,Form,1,0,intro,NULL,_REACTION_TIME_,1913
1557266498,7c0d78e2ec2bc9809cdbe214274b2e5b,Question,6,0,interpret-22,1,<p> You meet your friend Alex in a restaurant%2C but arrive late after she orders. </p> <p> The menu includes a sandwich which costs $15%2C and a soup which costs $10%2C as well pizza and other things. </p> <p> There is a special today. If you order both the sandwich and soup%2C you get a discount. <u> Instead of paying 25 Dollars%2C you pay only 22 Dollars. </u> </p> <p> You ask Alex%2C "What did you order?" </p> <p> She responds%2C "I ordered the sandwich." </p> <p> <b> How likely is it%2C in your opinion%2C that she also ordered soup? </b> </p>,1,NULL,36301
# Columns below this comment are as follows:
# 1. Time results were received.
# 2. MD5 hash of participant's IP address.
# 3. Controller name.
# 4. Item number.
# 5. Element number.
# 6. Type.
# 7. Group.
# 8. Field name.
# 9. Field value.
1557266498,7c0d78e2ec2bc9809cdbe214274b2e5b,Form,8,0,comprehension,NULL,q1,Sam
1557266498,7c0d78e2ec2bc9809cdbe214274b2e5b,Form,8,0,comprehension,NULL,q2,22
1557266498,7c0d78e2ec2bc9809cdbe214274b2e5b,Form,8,0,comprehension,NULL,_REACTION_TIME_,10785
1557266498,7c0d78e2ec2bc9809cdbe214274b2e5b,Form,9,0,outro,NULL,nativeq,yes
1557266498,7c0d78e2ec2bc9809cdbe214274b2e5b,Form,9,0,outro,NULL,_REACTION_TIME_,4679
#
# Results on Tuesday May 07 2019 22:02:05 UTC.
# USER AGENT: Mozilla/5.0 (Windows NT 10.0; Win64; x64) AppleWebKit/537.36 (KHTML, like Gecko) Chrome/74.0.3729.131 Safari/537.36
# Design number was non-random = 29
#
# The lines below this comment are in groups of 2.
# The formats of the lines in each of these groups are as follows:
#
# Line 1:
#     Col. 1: Time results were received.
#     Col. 2: MD5 hash of participant's IP address.
#     Col. 3: Controller name.
#     Col. 4: Item number.
#     Col. 5: Element number.
#     Col. 6: Type.
#     Col. 7: Group.
#     Col. 8: Field name.
#     Col. 9: Field value.
# Line 2:
#     Col. 1: Time results were received.
#     Col. 2: MD5 hash of participant's IP address.
#     Col. 3: Controller name.
#     Col. 4: Item number.
#     Col. 5: Element number.
#     Col. 6: Type.
#     Col. 7: Group.
#     Col. 8: Question (NULL if none).
#     Col. 9: Answer.
#     Col. 10: Whether or not answer was correct (NULL if N/A).
#     Col. 11: Time taken to answer.
1557266525,3fa94d8a8def379e757dd14e9df19e9b,Form,1,0,intro,NULL,_REACTION_TIME_,8177
1557266525,3fa94d8a8def379e757dd14e9df19e9b,Question,7,0,interpret-24,1,<p> You meet your friend Alex in a restaurant%2C but arrive late after she orders. </p> <p> The menu includes a sandwich which costs $15%2C and a soup which costs $10%2C as well pizza and other things. </p> <p> There is a special today. If you order both the sandwich and soup%2C you get a discount. <u> Instead of paying 25 Dollars%2C you pay only 24 Dollars. </u> </p> <p> You ask Alex%2C "What did you order?" </p> <p> She responds%2C "I ordered the sandwich." </p> <p> <b> How likely is it%2C in your opinion%2C that she also ordered soup? </b> </p>,5,NULL,26585
# Columns below this comment are as follows:
# 1. Time results were received.
# 2. MD5 hash of participant's IP address.
# 3. Controller name.
# 4. Item number.
# 5. Element number.
# 6. Type.
# 7. Group.
# 8. Field name.
# 9. Field value.
1557266525,3fa94d8a8def379e757dd14e9df19e9b,Form,8,0,comprehension,NULL,q1,Alex
1557266525,3fa94d8a8def379e757dd14e9df19e9b,Form,8,0,comprehension,NULL,q2,24
1557266525,3fa94d8a8def379e757dd14e9df19e9b,Form,8,0,comprehension,NULL,_REACTION_TIME_,7398
1557266525,3fa94d8a8def379e757dd14e9df19e9b,Form,9,0,outro,NULL,nativeq,yes
1557266525,3fa94d8a8def379e757dd14e9df19e9b,Form,9,0,outro,NULL,_REACTION_TIME_,13815
#
# Results on Tuesday May 07 2019 22:04:18 UTC.
# USER AGENT: Mozilla/5.0 (Linux; Android 8.0.0; SM-J737V) AppleWebKit/537.36 (KHTML, like Gecko) Chrome/74.0.3729.136 Mobile Safari/537.36
# Design number was non-random = 31
#
# The lines below this comment are in groups of 2.
# The formats of the lines in each of these groups are as follows:
#
# Line 1:
#     Col. 1: Time results were received.
#     Col. 2: MD5 hash of participant's IP address.
#     Col. 3: Controller name.
#     Col. 4: Item number.
#     Col. 5: Element number.
#     Col. 6: Type.
#     Col. 7: Group.
#     Col. 8: Field name.
#     Col. 9: Field value.
# Line 2:
#     Col. 1: Time results were received.
#     Col. 2: MD5 hash of participant's IP address.
#     Col. 3: Controller name.
#     Col. 4: Item number.
#     Col. 5: Element number.
#     Col. 6: Type.
#     Col. 7: Group.
#     Col. 8: Question (NULL if none).
#     Col. 9: Answer.
#     Col. 10: Whether or not answer was correct (NULL if N/A).
#     Col. 11: Time taken to answer.
1557266658,fea1f1747080ff065840c56bac86eef1,Form,1,0,intro,NULL,_REACTION_TIME_,6597
1557266658,fea1f1747080ff065840c56bac86eef1,Question,3,0,interpret-16,1,<p> You meet your friend Alex in a restaurant%2C but arrive late after she orders. </p> <p> The menu includes a sandwich which costs $15%2C and a soup which costs $10%2C as well pizza and other things. </p> <p> There is a special today. If you order both the sandwich and soup%2C you get a discount. <u> Instead of paying 25 Dollars%2C you pay only 16 Dollars. </u> </p> <p> You ask Alex%2C "What did you order?" </p> <p> She responds%2C "I ordered the sandwich." </p> <p> <b> How likely is it%2C in your opinion%2C that she also ordered soup? </b> </p>,3,NULL,16366
# Columns below this comment are as follows:
# 1. Time results were received.
# 2. MD5 hash of participant's IP address.
# 3. Controller name.
# 4. Item number.
# 5. Element number.
# 6. Type.
# 7. Group.
# 8. Field name.
# 9. Field value.
1557266658,fea1f1747080ff065840c56bac86eef1,Form,8,0,comprehension,NULL,q1,Alex
1557266658,fea1f1747080ff065840c56bac86eef1,Form,8,0,comprehension,NULL,q2,16
1557266658,fea1f1747080ff065840c56bac86eef1,Form,8,0,comprehension,NULL,_REACTION_TIME_,11673
1557266658,fea1f1747080ff065840c56bac86eef1,Form,9,0,outro,NULL,nativeq,yes
1557266658,fea1f1747080ff065840c56bac86eef1,Form,9,0,outro,NULL,_REACTION_TIME_,18083
#
# Results on Tuesday May 07 2019 22:05:14 UTC.
# USER AGENT: Mozilla/5.0 (Macintosh; Intel Mac OS X 10_12_6) AppleWebKit/605.1.15 (KHTML, like Gecko) Version/12.1 Safari/605.1.15
# Design number was non-random = 31
#
# The lines below this comment are in groups of 2.
# The formats of the lines in each of these groups are as follows:
#
# Line 1:
#     Col. 1: Time results were received.
#     Col. 2: MD5 hash of participant's IP address.
#     Col. 3: Controller name.
#     Col. 4: Item number.
#     Col. 5: Element number.
#     Col. 6: Type.
#     Col. 7: Group.
#     Col. 8: Field name.
#     Col. 9: Field value.
# Line 2:
#     Col. 1: Time results were received.
#     Col. 2: MD5 hash of participant's IP address.
#     Col. 3: Controller name.
#     Col. 4: Item number.
#     Col. 5: Element number.
#     Col. 6: Type.
#     Col. 7: Group.
#     Col. 8: Question (NULL if none).
#     Col. 9: Answer.
#     Col. 10: Whether or not answer was correct (NULL if N/A).
#     Col. 11: Time taken to answer.
1557266715,78752909675b41204e14a95886a3cd4c,Form,1,0,intro,NULL,_REACTION_TIME_,2365
1557266715,78752909675b41204e14a95886a3cd4c,Question,3,0,interpret-16,1,<p> You meet your friend Alex in a restaurant%2C but arrive late after she orders. </p> <p> The menu includes a sandwich which costs $15%2C and a soup which costs $10%2C as well pizza and other things. </p> <p> There is a special today. If you order both the sandwich and soup%2C you get a discount. <u> Instead of paying 25 Dollars%2C you pay only 16 Dollars. </u> </p> <p> You ask Alex%2C "What did you order?" </p> <p> She responds%2C "I ordered the sandwich." </p> <p> <b> How likely is it%2C in your opinion%2C that she also ordered soup? </b> </p>,7,NULL,33056
# Columns below this comment are as follows:
# 1. Time results were received.
# 2. MD5 hash of participant's IP address.
# 3. Controller name.
# 4. Item number.
# 5. Element number.
# 6. Type.
# 7. Group.
# 8. Field name.
# 9. Field value.
1557266715,78752909675b41204e14a95886a3cd4c,Form,8,0,comprehension,NULL,q1,Alex
1557266715,78752909675b41204e14a95886a3cd4c,Form,8,0,comprehension,NULL,q2,16
1557266715,78752909675b41204e14a95886a3cd4c,Form,8,0,comprehension,NULL,_REACTION_TIME_,6701
1557266715,78752909675b41204e14a95886a3cd4c,Form,9,0,outro,NULL,nativeq,yes
1557266715,78752909675b41204e14a95886a3cd4c,Form,9,0,outro,NULL,_REACTION_TIME_,20585
#
# Results on Tuesday May 07 2019 22:07:37 UTC.
# USER AGENT: Mozilla/5.0 (Windows NT 10.0; Win64; x64; rv:66.0) Gecko/20100101 Firefox/66.0
# Design number was non-random = 33
#
# The lines below this comment are in groups of 2.
# The formats of the lines in each of these groups are as follows:
#
# Line 1:
#     Col. 1: Time results were received.
#     Col. 2: MD5 hash of participant's IP address.
#     Col. 3: Controller name.
#     Col. 4: Item number.
#     Col. 5: Element number.
#     Col. 6: Type.
#     Col. 7: Group.
#     Col. 8: Field name.
#     Col. 9: Field value.
# Line 2:
#     Col. 1: Time results were received.
#     Col. 2: MD5 hash of participant's IP address.
#     Col. 3: Controller name.
#     Col. 4: Item number.
#     Col. 5: Element number.
#     Col. 6: Type.
#     Col. 7: Group.
#     Col. 8: Question (NULL if none).
#     Col. 9: Answer.
#     Col. 10: Whether or not answer was correct (NULL if N/A).
#     Col. 11: Time taken to answer.
1557266858,f7bd47c03568675d2d1cdb94ab713231,Form,1,0,intro,NULL,_REACTION_TIME_,3644
1557266858,f7bd47c03568675d2d1cdb94ab713231,Question,5,0,interpret-20,1,<p> You meet your friend Alex in a restaurant%2C but arrive late after she orders. </p> <p> The menu includes a sandwich which costs $15%2C and a soup which costs $10%2C as well pizza and other things. </p> <p> There is a special today. If you order both the sandwich and soup%2C you get a discount. <u> Instead of paying 25 Dollars%2C you pay only 20 Dollars. </u> </p> <p> You ask Alex%2C "What did you order?" </p> <p> She responds%2C "I ordered the sandwich." </p> <p> <b> How likely is it%2C in your opinion%2C that she also ordered soup? </b> </p>,5,NULL,29130
# Columns below this comment are as follows:
# 1. Time results were received.
# 2. MD5 hash of participant's IP address.
# 3. Controller name.
# 4. Item number.
# 5. Element number.
# 6. Type.
# 7. Group.
# 8. Field name.
# 9. Field value.
1557266858,f7bd47c03568675d2d1cdb94ab713231,Form,8,0,comprehension,NULL,q1,Alex
1557266858,f7bd47c03568675d2d1cdb94ab713231,Form,8,0,comprehension,NULL,q2,20
1557266858,f7bd47c03568675d2d1cdb94ab713231,Form,8,0,comprehension,NULL,_REACTION_TIME_,7682
1557266858,f7bd47c03568675d2d1cdb94ab713231,Form,9,0,outro,NULL,nativeq,yes
1557266858,f7bd47c03568675d2d1cdb94ab713231,Form,9,0,outro,NULL,_REACTION_TIME_,10175
#
# Results on Tuesday May 07 2019 22:09:01 UTC.
# USER AGENT: Mozilla/5.0 (Windows NT 10.0; Win64; x64) AppleWebKit/537.36 (KHTML, like Gecko) Chrome/74.0.3729.131 Safari/537.36
# Design number was non-random = 34
#
# The lines below this comment are in groups of 2.
# The formats of the lines in each of these groups are as follows:
#
# Line 1:
#     Col. 1: Time results were received.
#     Col. 2: MD5 hash of participant's IP address.
#     Col. 3: Controller name.
#     Col. 4: Item number.
#     Col. 5: Element number.
#     Col. 6: Type.
#     Col. 7: Group.
#     Col. 8: Field name.
#     Col. 9: Field value.
# Line 2:
#     Col. 1: Time results were received.
#     Col. 2: MD5 hash of participant's IP address.
#     Col. 3: Controller name.
#     Col. 4: Item number.
#     Col. 5: Element number.
#     Col. 6: Type.
#     Col. 7: Group.
#     Col. 8: Question (NULL if none).
#     Col. 9: Answer.
#     Col. 10: Whether or not answer was correct (NULL if N/A).
#     Col. 11: Time taken to answer.
1557266942,6da1c2b2c66ce9a638a8ce22ce309a08,Form,1,0,intro,NULL,_REACTION_TIME_,9999
1557266942,6da1c2b2c66ce9a638a8ce22ce309a08,Question,6,0,interpret-22,1,<p> You meet your friend Alex in a restaurant%2C but arrive late after she orders. </p> <p> The menu includes a sandwich which costs $15%2C and a soup which costs $10%2C as well pizza and other things. </p> <p> There is a special today. If you order both the sandwich and soup%2C you get a discount. <u> Instead of paying 25 Dollars%2C you pay only 22 Dollars. </u> </p> <p> You ask Alex%2C "What did you order?" </p> <p> She responds%2C "I ordered the sandwich." </p> <p> <b> How likely is it%2C in your opinion%2C that she also ordered soup? </b> </p>,1,NULL,19524
# Columns below this comment are as follows:
# 1. Time results were received.
# 2. MD5 hash of participant's IP address.
# 3. Controller name.
# 4. Item number.
# 5. Element number.
# 6. Type.
# 7. Group.
# 8. Field name.
# 9. Field value.
1557266942,6da1c2b2c66ce9a638a8ce22ce309a08,Form,8,0,comprehension,NULL,q1,Alex
1557266942,6da1c2b2c66ce9a638a8ce22ce309a08,Form,8,0,comprehension,NULL,q2,22
1557266942,6da1c2b2c66ce9a638a8ce22ce309a08,Form,8,0,comprehension,NULL,_REACTION_TIME_,11126
1557266942,6da1c2b2c66ce9a638a8ce22ce309a08,Form,9,0,outro,NULL,nativeq,yes
1557266942,6da1c2b2c66ce9a638a8ce22ce309a08,Form,9,0,outro,NULL,_REACTION_TIME_,10024
#
# Results on Tuesday May 07 2019 22:11:19 UTC.
# USER AGENT: Mozilla/5.0 (Macintosh; Intel Mac OS X 10_13_6) AppleWebKit/605.1.15 (KHTML, like Gecko) Version/12.0.3 Safari/605.1.15
# Design number was non-random = 35
#
# The lines below this comment are in groups of 2.
# The formats of the lines in each of these groups are as follows:
#
# Line 1:
#     Col. 1: Time results were received.
#     Col. 2: MD5 hash of participant's IP address.
#     Col. 3: Controller name.
#     Col. 4: Item number.
#     Col. 5: Element number.
#     Col. 6: Type.
#     Col. 7: Group.
#     Col. 8: Field name.
#     Col. 9: Field value.
# Line 2:
#     Col. 1: Time results were received.
#     Col. 2: MD5 hash of participant's IP address.
#     Col. 3: Controller name.
#     Col. 4: Item number.
#     Col. 5: Element number.
#     Col. 6: Type.
#     Col. 7: Group.
#     Col. 8: Question (NULL if none).
#     Col. 9: Answer.
#     Col. 10: Whether or not answer was correct (NULL if N/A).
#     Col. 11: Time taken to answer.
1557267080,3cd74029d66439dfbec0d56b9e672a2a,Form,1,0,intro,NULL,_REACTION_TIME_,5629
1557267080,3cd74029d66439dfbec0d56b9e672a2a,Question,7,0,interpret-24,1,<p> You meet your friend Alex in a restaurant%2C but arrive late after she orders. </p> <p> The menu includes a sandwich which costs $15%2C and a soup which costs $10%2C as well pizza and other things. </p> <p> There is a special today. If you order both the sandwich and soup%2C you get a discount. <u> Instead of paying 25 Dollars%2C you pay only 24 Dollars. </u> </p> <p> You ask Alex%2C "What did you order?" </p> <p> She responds%2C "I ordered the sandwich." </p> <p> <b> How likely is it%2C in your opinion%2C that she also ordered soup? </b> </p>,2,NULL,65536
# Columns below this comment are as follows:
# 1. Time results were received.
# 2. MD5 hash of participant's IP address.
# 3. Controller name.
# 4. Item number.
# 5. Element number.
# 6. Type.
# 7. Group.
# 8. Field name.
# 9. Field value.
1557267080,3cd74029d66439dfbec0d56b9e672a2a,Form,8,0,comprehension,NULL,q1,Alex
1557267080,3cd74029d66439dfbec0d56b9e672a2a,Form,8,0,comprehension,NULL,q2,24
1557267080,3cd74029d66439dfbec0d56b9e672a2a,Form,8,0,comprehension,NULL,_REACTION_TIME_,28428
1557267080,3cd74029d66439dfbec0d56b9e672a2a,Form,9,0,outro,NULL,nativeq,no
1557267080,3cd74029d66439dfbec0d56b9e672a2a,Form,9,0,outro,NULL,_REACTION_TIME_,15916
#
# Results on Tuesday May 07 2019 22:11:43 UTC.
# USER AGENT: Mozilla/5.0 (iPad; CPU OS 12_2 like Mac OS X) AppleWebKit/605.1.15 (KHTML, like Gecko) Version/12.1 Mobile/15E148 Safari/604.1
# Design number was non-random = 35
#
# The lines below this comment are in groups of 2.
# The formats of the lines in each of these groups are as follows:
#
# Line 1:
#     Col. 1: Time results were received.
#     Col. 2: MD5 hash of participant's IP address.
#     Col. 3: Controller name.
#     Col. 4: Item number.
#     Col. 5: Element number.
#     Col. 6: Type.
#     Col. 7: Group.
#     Col. 8: Field name.
#     Col. 9: Field value.
# Line 2:
#     Col. 1: Time results were received.
#     Col. 2: MD5 hash of participant's IP address.
#     Col. 3: Controller name.
#     Col. 4: Item number.
#     Col. 5: Element number.
#     Col. 6: Type.
#     Col. 7: Group.
#     Col. 8: Question (NULL if none).
#     Col. 9: Answer.
#     Col. 10: Whether or not answer was correct (NULL if N/A).
#     Col. 11: Time taken to answer.
1557267103,ffee51144ff2d4a389ae96d73fcb89bc,Form,1,0,intro,NULL,_REACTION_TIME_,1650
1557267103,ffee51144ff2d4a389ae96d73fcb89bc,Question,7,0,interpret-24,1,<p> You meet your friend Alex in a restaurant%2C but arrive late after she orders. </p> <p> The menu includes a sandwich which costs $15%2C and a soup which costs $10%2C as well pizza and other things. </p> <p> There is a special today. If you order both the sandwich and soup%2C you get a discount. <u> Instead of paying 25 Dollars%2C you pay only 24 Dollars. </u> </p> <p> You ask Alex%2C "What did you order?" </p> <p> She responds%2C "I ordered the sandwich." </p> <p> <b> How likely is it%2C in your opinion%2C that she also ordered soup? </b> </p>,2,NULL,21177
# Columns below this comment are as follows:
# 1. Time results were received.
# 2. MD5 hash of participant's IP address.
# 3. Controller name.
# 4. Item number.
# 5. Element number.
# 6. Type.
# 7. Group.
# 8. Field name.
# 9. Field value.
1557267103,ffee51144ff2d4a389ae96d73fcb89bc,Form,8,0,comprehension,NULL,q1,Sam
1557267103,ffee51144ff2d4a389ae96d73fcb89bc,Form,8,0,comprehension,NULL,q2,24
1557267103,ffee51144ff2d4a389ae96d73fcb89bc,Form,8,0,comprehension,NULL,_REACTION_TIME_,6679
1557267103,ffee51144ff2d4a389ae96d73fcb89bc,Form,9,0,outro,NULL,nativeq,yes
1557267103,ffee51144ff2d4a389ae96d73fcb89bc,Form,9,0,outro,NULL,_REACTION_TIME_,10483
#
# Results on Tuesday May 07 2019 22:12:04 UTC.
# USER AGENT: Mozilla/5.0 (Windows NT 6.3; Win64; x64; rv:66.0) Gecko/20100101 Firefox/66.0
# Design number was non-random = 35
#
# The lines below this comment are in groups of 2.
# The formats of the lines in each of these groups are as follows:
#
# Line 1:
#     Col. 1: Time results were received.
#     Col. 2: MD5 hash of participant's IP address.
#     Col. 3: Controller name.
#     Col. 4: Item number.
#     Col. 5: Element number.
#     Col. 6: Type.
#     Col. 7: Group.
#     Col. 8: Field name.
#     Col. 9: Field value.
# Line 2:
#     Col. 1: Time results were received.
#     Col. 2: MD5 hash of participant's IP address.
#     Col. 3: Controller name.
#     Col. 4: Item number.
#     Col. 5: Element number.
#     Col. 6: Type.
#     Col. 7: Group.
#     Col. 8: Question (NULL if none).
#     Col. 9: Answer.
#     Col. 10: Whether or not answer was correct (NULL if N/A).
#     Col. 11: Time taken to answer.
1557267125,76bd5621b0cf0a7b7a1644afdc8c8d35,Form,1,0,intro,NULL,_REACTION_TIME_,16193
1557267125,76bd5621b0cf0a7b7a1644afdc8c8d35,Question,7,0,interpret-24,1,<p> You meet your friend Alex in a restaurant%2C but arrive late after she orders. </p> <p> The menu includes a sandwich which costs $15%2C and a soup which costs $10%2C as well pizza and other things. </p> <p> There is a special today. If you order both the sandwich and soup%2C you get a discount. <u> Instead of paying 25 Dollars%2C you pay only 24 Dollars. </u> </p> <p> You ask Alex%2C "What did you order?" </p> <p> She responds%2C "I ordered the sandwich." </p> <p> <b> How likely is it%2C in your opinion%2C that she also ordered soup? </b> </p>,8,NULL,19764
# Columns below this comment are as follows:
# 1. Time results were received.
# 2. MD5 hash of participant's IP address.
# 3. Controller name.
# 4. Item number.
# 5. Element number.
# 6. Type.
# 7. Group.
# 8. Field name.
# 9. Field value.
1557267125,76bd5621b0cf0a7b7a1644afdc8c8d35,Form,8,0,comprehension,NULL,q1,Alex
1557267125,76bd5621b0cf0a7b7a1644afdc8c8d35,Form,8,0,comprehension,NULL,q2,24
1557267125,76bd5621b0cf0a7b7a1644afdc8c8d35,Form,8,0,comprehension,NULL,_REACTION_TIME_,9800
1557267125,76bd5621b0cf0a7b7a1644afdc8c8d35,Form,9,0,outro,NULL,nativeq,yes
1557267125,76bd5621b0cf0a7b7a1644afdc8c8d35,Form,9,0,outro,NULL,_REACTION_TIME_,17981
#
# Results on Tuesday May 07 2019 22:12:34 UTC.
# USER AGENT: Mozilla/5.0 (Windows NT 10.0; Win64; x64) AppleWebKit/537.36 (KHTML, like Gecko) Chrome/73.0.3683.86 Safari/537.36
# Design number was non-random = 38
#
# The lines below this comment are in groups of 2.
# The formats of the lines in each of these groups are as follows:
#
# Line 1:
#     Col. 1: Time results were received.
#     Col. 2: MD5 hash of participant's IP address.
#     Col. 3: Controller name.
#     Col. 4: Item number.
#     Col. 5: Element number.
#     Col. 6: Type.
#     Col. 7: Group.
#     Col. 8: Field name.
#     Col. 9: Field value.
# Line 2:
#     Col. 1: Time results were received.
#     Col. 2: MD5 hash of participant's IP address.
#     Col. 3: Controller name.
#     Col. 4: Item number.
#     Col. 5: Element number.
#     Col. 6: Type.
#     Col. 7: Group.
#     Col. 8: Question (NULL if none).
#     Col. 9: Answer.
#     Col. 10: Whether or not answer was correct (NULL if N/A).
#     Col. 11: Time taken to answer.
1557267154,347db3827c4745ccb6c970315d2ecb0c,Form,1,0,intro,NULL,_REACTION_TIME_,2644
1557267154,347db3827c4745ccb6c970315d2ecb0c,Question,4,0,interpret-18,1,<p> You meet your friend Alex in a restaurant%2C but arrive late after she orders. </p> <p> The menu includes a sandwich which costs $15%2C and a soup which costs $10%2C as well pizza and other things. </p> <p> There is a special today. If you order both the sandwich and soup%2C you get a discount. <u> Instead of paying 25 Dollars%2C you pay only 18 Dollars. </u> </p> <p> You ask Alex%2C "What did you order?" </p> <p> She responds%2C "I ordered the sandwich." </p> <p> <b> How likely is it%2C in your opinion%2C that she also ordered soup? </b> </p>,1,NULL,11475
# Columns below this comment are as follows:
# 1. Time results were received.
# 2. MD5 hash of participant's IP address.
# 3. Controller name.
# 4. Item number.
# 5. Element number.
# 6. Type.
# 7. Group.
# 8. Field name.
# 9. Field value.
1557267154,347db3827c4745ccb6c970315d2ecb0c,Form,8,0,comprehension,NULL,q1,Alex
1557267154,347db3827c4745ccb6c970315d2ecb0c,Form,8,0,comprehension,NULL,q2,18
1557267154,347db3827c4745ccb6c970315d2ecb0c,Form,8,0,comprehension,NULL,_REACTION_TIME_,5981
1557267154,347db3827c4745ccb6c970315d2ecb0c,Form,9,0,outro,NULL,nativeq,yes
1557267154,347db3827c4745ccb6c970315d2ecb0c,Form,9,0,outro,NULL,_REACTION_TIME_,4918
#
# Results on Tuesday May 07 2019 22:13:24 UTC.
# USER AGENT: Mozilla/5.0 (Windows NT 10.0; Win64; x64; rv:66.0) Gecko/20100101 Firefox/66.0
# Design number was non-random = 37
#
# The lines below this comment are in groups of 2.
# The formats of the lines in each of these groups are as follows:
#
# Line 1:
#     Col. 1: Time results were received.
#     Col. 2: MD5 hash of participant's IP address.
#     Col. 3: Controller name.
#     Col. 4: Item number.
#     Col. 5: Element number.
#     Col. 6: Type.
#     Col. 7: Group.
#     Col. 8: Field name.
#     Col. 9: Field value.
# Line 2:
#     Col. 1: Time results were received.
#     Col. 2: MD5 hash of participant's IP address.
#     Col. 3: Controller name.
#     Col. 4: Item number.
#     Col. 5: Element number.
#     Col. 6: Type.
#     Col. 7: Group.
#     Col. 8: Question (NULL if none).
#     Col. 9: Answer.
#     Col. 10: Whether or not answer was correct (NULL if N/A).
#     Col. 11: Time taken to answer.
1557267205,f1c025a4bca976bcb49dbe93b9a65735,Form,1,0,intro,NULL,_REACTION_TIME_,19314
1557267205,f1c025a4bca976bcb49dbe93b9a65735,Question,3,0,interpret-16,1,<p> You meet your friend Alex in a restaurant%2C but arrive late after she orders. </p> <p> The menu includes a sandwich which costs $15%2C and a soup which costs $10%2C as well pizza and other things. </p> <p> There is a special today. If you order both the sandwich and soup%2C you get a discount. <u> Instead of paying 25 Dollars%2C you pay only 16 Dollars. </u> </p> <p> You ask Alex%2C "What did you order?" </p> <p> She responds%2C "I ordered the sandwich." </p> <p> <b> How likely is it%2C in your opinion%2C that she also ordered soup? </b> </p>,3,NULL,37010
# Columns below this comment are as follows:
# 1. Time results were received.
# 2. MD5 hash of participant's IP address.
# 3. Controller name.
# 4. Item number.
# 5. Element number.
# 6. Type.
# 7. Group.
# 8. Field name.
# 9. Field value.
1557267205,f1c025a4bca976bcb49dbe93b9a65735,Form,8,0,comprehension,NULL,q1,Alex
1557267205,f1c025a4bca976bcb49dbe93b9a65735,Form,8,0,comprehension,NULL,q2,16
1557267205,f1c025a4bca976bcb49dbe93b9a65735,Form,8,0,comprehension,NULL,_REACTION_TIME_,10317
1557267205,f1c025a4bca976bcb49dbe93b9a65735,Form,9,0,outro,NULL,nativeq,no
1557267205,f1c025a4bca976bcb49dbe93b9a65735,Form,9,0,outro,NULL,_REACTION_TIME_,22592
#
# Results on Tuesday May 07 2019 22:15:10 UTC.
# USER AGENT: Mozilla/5.0 (Windows NT 10.0; Win64; x64) AppleWebKit/537.36 (KHTML, like Gecko) Chrome/64.0.3282.140 Safari/537.36 Edge/18.17763
# Design number was non-random = 40
#
# The lines below this comment are in groups of 2.
# The formats of the lines in each of these groups are as follows:
#
# Line 1:
#     Col. 1: Time results were received.
#     Col. 2: MD5 hash of participant's IP address.
#     Col. 3: Controller name.
#     Col. 4: Item number.
#     Col. 5: Element number.
#     Col. 6: Type.
#     Col. 7: Group.
#     Col. 8: Field name.
#     Col. 9: Field value.
# Line 2:
#     Col. 1: Time results were received.
#     Col. 2: MD5 hash of participant's IP address.
#     Col. 3: Controller name.
#     Col. 4: Item number.
#     Col. 5: Element number.
#     Col. 6: Type.
#     Col. 7: Group.
#     Col. 8: Question (NULL if none).
#     Col. 9: Answer.
#     Col. 10: Whether or not answer was correct (NULL if N/A).
#     Col. 11: Time taken to answer.
1557267310,d97c5aae744f32b1b58c22fd32cdca71,Form,1,0,intro,NULL,_REACTION_TIME_,7174
1557267310,d97c5aae744f32b1b58c22fd32cdca71,Question,6,0,interpret-22,1,<p> You meet your friend Alex in a restaurant%2C but arrive late after she orders. </p> <p> The menu includes a sandwich which costs $15%2C and a soup which costs $10%2C as well pizza and other things. </p> <p> There is a special today. If you order both the sandwich and soup%2C you get a discount. <u> Instead of paying 25 Dollars%2C you pay only 22 Dollars. </u> </p> <p> You ask Alex%2C "What did you order?" </p> <p> She responds%2C "I ordered the sandwich." </p> <p> <b> How likely is it%2C in your opinion%2C that she also ordered soup? </b> </p>,2,NULL,11859
# Columns below this comment are as follows:
# 1. Time results were received.
# 2. MD5 hash of participant's IP address.
# 3. Controller name.
# 4. Item number.
# 5. Element number.
# 6. Type.
# 7. Group.
# 8. Field name.
# 9. Field value.
1557267310,d97c5aae744f32b1b58c22fd32cdca71,Form,8,0,comprehension,NULL,q1,Alex
1557267310,d97c5aae744f32b1b58c22fd32cdca71,Form,8,0,comprehension,NULL,q2,22
1557267310,d97c5aae744f32b1b58c22fd32cdca71,Form,8,0,comprehension,NULL,_REACTION_TIME_,5119
1557267310,d97c5aae744f32b1b58c22fd32cdca71,Form,9,0,outro,NULL,nativeq,yes
1557267310,d97c5aae744f32b1b58c22fd32cdca71,Form,9,0,outro,NULL,_REACTION_TIME_,9138
#
# Results on Tuesday May 07 2019 22:15:24 UTC.
# USER AGENT: Mozilla/5.0 (Windows NT 10.0; Win64; x64) AppleWebKit/537.36 (KHTML, like Gecko) Chrome/74.0.3729.131 Safari/537.36
# Design number was non-random = 40
#
# The lines below this comment are in groups of 2.
# The formats of the lines in each of these groups are as follows:
#
# Line 1:
#     Col. 1: Time results were received.
#     Col. 2: MD5 hash of participant's IP address.
#     Col. 3: Controller name.
#     Col. 4: Item number.
#     Col. 5: Element number.
#     Col. 6: Type.
#     Col. 7: Group.
#     Col. 8: Field name.
#     Col. 9: Field value.
# Line 2:
#     Col. 1: Time results were received.
#     Col. 2: MD5 hash of participant's IP address.
#     Col. 3: Controller name.
#     Col. 4: Item number.
#     Col. 5: Element number.
#     Col. 6: Type.
#     Col. 7: Group.
#     Col. 8: Question (NULL if none).
#     Col. 9: Answer.
#     Col. 10: Whether or not answer was correct (NULL if N/A).
#     Col. 11: Time taken to answer.
1557267324,4565a8701614433dd49a2842c2a91a9b,Form,1,0,intro,NULL,_REACTION_TIME_,7832
1557267324,4565a8701614433dd49a2842c2a91a9b,Question,6,0,interpret-22,1,<p> You meet your friend Alex in a restaurant%2C but arrive late after she orders. </p> <p> The menu includes a sandwich which costs $15%2C and a soup which costs $10%2C as well pizza and other things. </p> <p> There is a special today. If you order both the sandwich and soup%2C you get a discount. <u> Instead of paying 25 Dollars%2C you pay only 22 Dollars. </u> </p> <p> You ask Alex%2C "What did you order?" </p> <p> She responds%2C "I ordered the sandwich." </p> <p> <b> How likely is it%2C in your opinion%2C that she also ordered soup? </b> </p>,3,NULL,19471
# Columns below this comment are as follows:
# 1. Time results were received.
# 2. MD5 hash of participant's IP address.
# 3. Controller name.
# 4. Item number.
# 5. Element number.
# 6. Type.
# 7. Group.
# 8. Field name.
# 9. Field value.
1557267324,4565a8701614433dd49a2842c2a91a9b,Form,8,0,comprehension,NULL,q1,Alex
1557267324,4565a8701614433dd49a2842c2a91a9b,Form,8,0,comprehension,NULL,q2,15
1557267324,4565a8701614433dd49a2842c2a91a9b,Form,8,0,comprehension,NULL,_REACTION_TIME_,5008
1557267324,4565a8701614433dd49a2842c2a91a9b,Form,9,0,outro,NULL,nativeq,yes
1557267324,4565a8701614433dd49a2842c2a91a9b,Form,9,0,outro,NULL,_REACTION_TIME_,5016
#
# Results on Tuesday May 07 2019 22:17:41 UTC.
# USER AGENT: Mozilla/5.0 (Windows NT 10.0; Win64; x64) AppleWebKit/537.36 (KHTML, like Gecko) Chrome/74.0.3729.131 Safari/537.36
# Design number was non-random = 42
#
# The lines below this comment are in groups of 2.
# The formats of the lines in each of these groups are as follows:
#
# Line 1:
#     Col. 1: Time results were received.
#     Col. 2: MD5 hash of participant's IP address.
#     Col. 3: Controller name.
#     Col. 4: Item number.
#     Col. 5: Element number.
#     Col. 6: Type.
#     Col. 7: Group.
#     Col. 8: Field name.
#     Col. 9: Field value.
# Line 2:
#     Col. 1: Time results were received.
#     Col. 2: MD5 hash of participant's IP address.
#     Col. 3: Controller name.
#     Col. 4: Item number.
#     Col. 5: Element number.
#     Col. 6: Type.
#     Col. 7: Group.
#     Col. 8: Question (NULL if none).
#     Col. 9: Answer.
#     Col. 10: Whether or not answer was correct (NULL if N/A).
#     Col. 11: Time taken to answer.
1557267461,9dd6dec6ef88edf5fabb0293416a1a26,Form,1,0,intro,NULL,_REACTION_TIME_,5731
1557267461,9dd6dec6ef88edf5fabb0293416a1a26,Question,2,0,interpret-15,1,<p> You meet your friend Alex in a restaurant%2C but arrive late after she orders. </p> <p> The menu includes a sandwich which costs $15%2C and a soup which costs $10%2C as well pizza and other things. </p> <p> There is a special today. If you order both the sandwich and soup%2C you get a discount. <u> Instead of paying 25 Dollars%2C you pay only 15 Dollars. </u> </p> <p> You ask Alex%2C "What did you order?" </p> <p> She responds%2C "I ordered the sandwich." </p> <p> <b> How likely is it%2C in your opinion%2C that she also ordered soup? </b> </p>,4,NULL,29827
# Columns below this comment are as follows:
# 1. Time results were received.
# 2. MD5 hash of participant's IP address.
# 3. Controller name.
# 4. Item number.
# 5. Element number.
# 6. Type.
# 7. Group.
# 8. Field name.
# 9. Field value.
1557267461,9dd6dec6ef88edf5fabb0293416a1a26,Form,8,0,comprehension,NULL,q1,Alex
1557267461,9dd6dec6ef88edf5fabb0293416a1a26,Form,8,0,comprehension,NULL,q2,15
1557267461,9dd6dec6ef88edf5fabb0293416a1a26,Form,8,0,comprehension,NULL,_REACTION_TIME_,8830
1557267461,9dd6dec6ef88edf5fabb0293416a1a26,Form,9,0,outro,NULL,nativeq,yes
1557267461,9dd6dec6ef88edf5fabb0293416a1a26,Form,9,0,outro,NULL,_REACTION_TIME_,5958
#
# Results on Tuesday May 07 2019 22:18:50 UTC.
# USER AGENT: Mozilla/5.0 (Windows NT 10.0; Win64; x64) AppleWebKit/537.36 (KHTML, like Gecko) Chrome/73.0.3683.103 Safari/537.36
# Design number was non-random = 42
#
# The lines below this comment are in groups of 2.
# The formats of the lines in each of these groups are as follows:
#
# Line 1:
#     Col. 1: Time results were received.
#     Col. 2: MD5 hash of participant's IP address.
#     Col. 3: Controller name.
#     Col. 4: Item number.
#     Col. 5: Element number.
#     Col. 6: Type.
#     Col. 7: Group.
#     Col. 8: Field name.
#     Col. 9: Field value.
# Line 2:
#     Col. 1: Time results were received.
#     Col. 2: MD5 hash of participant's IP address.
#     Col. 3: Controller name.
#     Col. 4: Item number.
#     Col. 5: Element number.
#     Col. 6: Type.
#     Col. 7: Group.
#     Col. 8: Question (NULL if none).
#     Col. 9: Answer.
#     Col. 10: Whether or not answer was correct (NULL if N/A).
#     Col. 11: Time taken to answer.
1557267531,ae7cfd4b2ae9882fd49e2e82c2b76427,Form,1,0,intro,NULL,_REACTION_TIME_,10023
1557267531,ae7cfd4b2ae9882fd49e2e82c2b76427,Question,2,0,interpret-15,1,<p> You meet your friend Alex in a restaurant%2C but arrive late after she orders. </p> <p> The menu includes a sandwich which costs $15%2C and a soup which costs $10%2C as well pizza and other things. </p> <p> There is a special today. If you order both the sandwich and soup%2C you get a discount. <u> Instead of paying 25 Dollars%2C you pay only 15 Dollars. </u> </p> <p> You ask Alex%2C "What did you order?" </p> <p> She responds%2C "I ordered the sandwich." </p> <p> <b> How likely is it%2C in your opinion%2C that she also ordered soup? </b> </p>,9,NULL,52609
# Columns below this comment are as follows:
# 1. Time results were received.
# 2. MD5 hash of participant's IP address.
# 3. Controller name.
# 4. Item number.
# 5. Element number.
# 6. Type.
# 7. Group.
# 8. Field name.
# 9. Field value.
1557267531,ae7cfd4b2ae9882fd49e2e82c2b76427,Form,8,0,comprehension,NULL,q1,Alex
1557267531,ae7cfd4b2ae9882fd49e2e82c2b76427,Form,8,0,comprehension,NULL,q2,15
1557267531,ae7cfd4b2ae9882fd49e2e82c2b76427,Form,8,0,comprehension,NULL,_REACTION_TIME_,10478
1557267531,ae7cfd4b2ae9882fd49e2e82c2b76427,Form,9,0,outro,NULL,nativeq,yes
1557267531,ae7cfd4b2ae9882fd49e2e82c2b76427,Form,9,0,outro,NULL,_REACTION_TIME_,11342
#
# Results on Tuesday May 07 2019 22:19:11 UTC.
# USER AGENT: Mozilla/5.0 (Windows NT 6.3; Win64; x64) AppleWebKit/537.36 (KHTML, like Gecko) Chrome/74.0.3729.131 Safari/537.36
# Design number was non-random = 43
#
# The lines below this comment are in groups of 2.
# The formats of the lines in each of these groups are as follows:
#
# Line 1:
#     Col. 1: Time results were received.
#     Col. 2: MD5 hash of participant's IP address.
#     Col. 3: Controller name.
#     Col. 4: Item number.
#     Col. 5: Element number.
#     Col. 6: Type.
#     Col. 7: Group.
#     Col. 8: Field name.
#     Col. 9: Field value.
# Line 2:
#     Col. 1: Time results were received.
#     Col. 2: MD5 hash of participant's IP address.
#     Col. 3: Controller name.
#     Col. 4: Item number.
#     Col. 5: Element number.
#     Col. 6: Type.
#     Col. 7: Group.
#     Col. 8: Question (NULL if none).
#     Col. 9: Answer.
#     Col. 10: Whether or not answer was correct (NULL if N/A).
#     Col. 11: Time taken to answer.
1557267551,472f0f33e0b373d77b8f32316cdf439f,Form,1,0,intro,NULL,_REACTION_TIME_,4636
1557267551,472f0f33e0b373d77b8f32316cdf439f,Question,3,0,interpret-16,1,<p> You meet your friend Alex in a restaurant%2C but arrive late after she orders. </p> <p> The menu includes a sandwich which costs $15%2C and a soup which costs $10%2C as well pizza and other things. </p> <p> There is a special today. If you order both the sandwich and soup%2C you get a discount. <u> Instead of paying 25 Dollars%2C you pay only 16 Dollars. </u> </p> <p> You ask Alex%2C "What did you order?" </p> <p> She responds%2C "I ordered the sandwich." </p> <p> <b> How likely is it%2C in your opinion%2C that she also ordered soup? </b> </p>,1,NULL,24053
# Columns below this comment are as follows:
# 1. Time results were received.
# 2. MD5 hash of participant's IP address.
# 3. Controller name.
# 4. Item number.
# 5. Element number.
# 6. Type.
# 7. Group.
# 8. Field name.
# 9. Field value.
1557267551,472f0f33e0b373d77b8f32316cdf439f,Form,8,0,comprehension,NULL,q1,Alex
1557267551,472f0f33e0b373d77b8f32316cdf439f,Form,8,0,comprehension,NULL,q2,15
1557267551,472f0f33e0b373d77b8f32316cdf439f,Form,8,0,comprehension,NULL,_REACTION_TIME_,10208
1557267551,472f0f33e0b373d77b8f32316cdf439f,Form,9,0,outro,NULL,nativeq,yes
1557267551,472f0f33e0b373d77b8f32316cdf439f,Form,9,0,outro,NULL,_REACTION_TIME_,8244
#
# Results on Tuesday May 07 2019 22:25:11 UTC.
# USER AGENT: Mozilla/5.0 (Windows NT 10.0; Win64; x64; rv:66.0) Gecko/20100101 Firefox/66.0
# Design number was non-random = 45
#
# The lines below this comment are in groups of 2.
# The formats of the lines in each of these groups are as follows:
#
# Line 1:
#     Col. 1: Time results were received.
#     Col. 2: MD5 hash of participant's IP address.
#     Col. 3: Controller name.
#     Col. 4: Item number.
#     Col. 5: Element number.
#     Col. 6: Type.
#     Col. 7: Group.
#     Col. 8: Field name.
#     Col. 9: Field value.
# Line 2:
#     Col. 1: Time results were received.
#     Col. 2: MD5 hash of participant's IP address.
#     Col. 3: Controller name.
#     Col. 4: Item number.
#     Col. 5: Element number.
#     Col. 6: Type.
#     Col. 7: Group.
#     Col. 8: Question (NULL if none).
#     Col. 9: Answer.
#     Col. 10: Whether or not answer was correct (NULL if N/A).
#     Col. 11: Time taken to answer.
1557267911,497a2930c1e801033510b9aef2c27368,Form,1,0,intro,NULL,_REACTION_TIME_,4211
1557267911,497a2930c1e801033510b9aef2c27368,Question,5,0,interpret-20,1,<p> You meet your friend Alex in a restaurant%2C but arrive late after she orders. </p> <p> The menu includes a sandwich which costs $15%2C and a soup which costs $10%2C as well pizza and other things. </p> <p> There is a special today. If you order both the sandwich and soup%2C you get a discount. <u> Instead of paying 25 Dollars%2C you pay only 20 Dollars. </u> </p> <p> You ask Alex%2C "What did you order?" </p> <p> She responds%2C "I ordered the sandwich." </p> <p> <b> How likely is it%2C in your opinion%2C that she also ordered soup? </b> </p>,5,NULL,25191
# Columns below this comment are as follows:
# 1. Time results were received.
# 2. MD5 hash of participant's IP address.
# 3. Controller name.
# 4. Item number.
# 5. Element number.
# 6. Type.
# 7. Group.
# 8. Field name.
# 9. Field value.
1557267911,497a2930c1e801033510b9aef2c27368,Form,8,0,comprehension,NULL,q1,Alex
1557267911,497a2930c1e801033510b9aef2c27368,Form,8,0,comprehension,NULL,q2,20
1557267911,497a2930c1e801033510b9aef2c27368,Form,8,0,comprehension,NULL,_REACTION_TIME_,6149
1557267911,497a2930c1e801033510b9aef2c27368,Form,9,0,outro,NULL,nativeq,yes
1557267911,497a2930c1e801033510b9aef2c27368,Form,9,0,outro,NULL,_REACTION_TIME_,9264
#
# Results on Tuesday May 07 2019 22:30:19 UTC.
# USER AGENT: Mozilla/5.0 (Windows NT 6.1; Win64; x64) AppleWebKit/537.36 (KHTML, like Gecko) Chrome/74.0.3729.131 Safari/537.36
# Design number was non-random = 46
#
# The lines below this comment are in groups of 2.
# The formats of the lines in each of these groups are as follows:
#
# Line 1:
#     Col. 1: Time results were received.
#     Col. 2: MD5 hash of participant's IP address.
#     Col. 3: Controller name.
#     Col. 4: Item number.
#     Col. 5: Element number.
#     Col. 6: Type.
#     Col. 7: Group.
#     Col. 8: Field name.
#     Col. 9: Field value.
# Line 2:
#     Col. 1: Time results were received.
#     Col. 2: MD5 hash of participant's IP address.
#     Col. 3: Controller name.
#     Col. 4: Item number.
#     Col. 5: Element number.
#     Col. 6: Type.
#     Col. 7: Group.
#     Col. 8: Question (NULL if none).
#     Col. 9: Answer.
#     Col. 10: Whether or not answer was correct (NULL if N/A).
#     Col. 11: Time taken to answer.
1557268219,761c3f8ee57c7bb0df2ffc41743fa19f,Form,1,0,intro,NULL,_REACTION_TIME_,8411
1557268219,761c3f8ee57c7bb0df2ffc41743fa19f,Question,6,0,interpret-22,1,<p> You meet your friend Alex in a restaurant%2C but arrive late after she orders. </p> <p> The menu includes a sandwich which costs $15%2C and a soup which costs $10%2C as well pizza and other things. </p> <p> There is a special today. If you order both the sandwich and soup%2C you get a discount. <u> Instead of paying 25 Dollars%2C you pay only 22 Dollars. </u> </p> <p> You ask Alex%2C "What did you order?" </p> <p> She responds%2C "I ordered the sandwich." </p> <p> <b> How likely is it%2C in your opinion%2C that she also ordered soup? </b> </p>,2,NULL,16813
# Columns below this comment are as follows:
# 1. Time results were received.
# 2. MD5 hash of participant's IP address.
# 3. Controller name.
# 4. Item number.
# 5. Element number.
# 6. Type.
# 7. Group.
