#
# Results on Monday May 06 2019 19:29:49 UTC.
# USER AGENT: Mozilla/5.0 (Windows NT 10.0; Win64; x64) AppleWebKit/537.36 (KHTML, like Gecko) Chrome/73.0.3683.103 Safari/537.36
# Design number was non-random = 13
#
# The lines below this comment are in groups of 2.
# The formats of the lines in each of these groups are as follows:
#
# Line 1:
#     Col. 1: Time results were received.
#     Col. 2: MD5 hash of participant's IP address.
#     Col. 3: Controller name.
#     Col. 4: Item number.
#     Col. 5: Element number.
#     Col. 6: Type.
#     Col. 7: Group.
#     Col. 8: Field name.
#     Col. 9: Field value.
# Line 2:
#     Col. 1: Time results were received.
#     Col. 2: MD5 hash of participant's IP address.
#     Col. 3: Controller name.
#     Col. 4: Item number.
#     Col. 5: Element number.
#     Col. 6: Type.
#     Col. 7: Group.
#     Col. 8: Question (NULL if none).
#     Col. 9: Answer.
#     Col. 10: Whether or not answer was correct (NULL if N/A).
#     Col. 11: Time taken to answer.
1557170989,5c41dfdd2413de082016592c467259da,Form,1,0,intro,NULL,_REACTION_TIME_,1316
1557170989,5c41dfdd2413de082016592c467259da,Question,3,0,prior-16,1,<p> Alex is in a restaurant. The menu includes a sandwich which costs $15%2C and a soup which costs $10%2C as well pizza and other things. </p> <p> There is a special today. If you order both the sandwich and soup%2C you get a discount. Instead of paying 25 Dollars%2C you pay only 16 Dollars. </p> <p> Alex is currently having a sandwich. <b> How likely is it%2C in your opinion%2C that she also ordered soup? </b> </p>,9,NULL,9716
# Columns below this comment are as follows:
# 1. Time results were received.
# 2. MD5 hash of participant's IP address.
# 3. Controller name.
# 4. Item number.
# 5. Element number.
# 6. Type.
# 7. Group.
# 8. Field name.
# 9. Field value.
1557170989,5c41dfdd2413de082016592c467259da,Form,8,0,comprehension,NULL,q1,Alex
1557170989,5c41dfdd2413de082016592c467259da,Form,8,0,comprehension,NULL,q2,no
1557170989,5c41dfdd2413de082016592c467259da,Form,8,0,comprehension,NULL,_REACTION_TIME_,3313
1557170989,5c41dfdd2413de082016592c467259da,Form,9,0,outro,NULL,nativeq,yes
1557170989,5c41dfdd2413de082016592c467259da,Form,9,0,outro,NULL,_REACTION_TIME_,2634
#
# Results on Monday May 06 2019 19:30:04 UTC.
# USER AGENT: Mozilla/5.0 (Windows NT 10.0; Win64; x64) AppleWebKit/537.36 (KHTML, like Gecko) Chrome/74.0.3729.131 Safari/537.36
# Design number was non-random = 13
#
# The lines below this comment are in groups of 2.
# The formats of the lines in each of these groups are as follows:
#
# Line 1:
#     Col. 1: Time results were received.
#     Col. 2: MD5 hash of participant's IP address.
#     Col. 3: Controller name.
#     Col. 4: Item number.
#     Col. 5: Element number.
#     Col. 6: Type.
#     Col. 7: Group.
#     Col. 8: Field name.
#     Col. 9: Field value.
# Line 2:
#     Col. 1: Time results were received.
#     Col. 2: MD5 hash of participant's IP address.
#     Col. 3: Controller name.
#     Col. 4: Item number.
#     Col. 5: Element number.
#     Col. 6: Type.
#     Col. 7: Group.
#     Col. 8: Question (NULL if none).
#     Col. 9: Answer.
#     Col. 10: Whether or not answer was correct (NULL if N/A).
#     Col. 11: Time taken to answer.
1557171004,2eedc07a7b3c0292a7e8bd2fc65e095b,Form,1,0,intro,NULL,_REACTION_TIME_,4502
1557171004,2eedc07a7b3c0292a7e8bd2fc65e095b,Question,3,0,prior-16,1,<p> Alex is in a restaurant. The menu includes a sandwich which costs $15%2C and a soup which costs $10%2C as well pizza and other things. </p> <p> There is a special today. If you order both the sandwich and soup%2C you get a discount. Instead of paying 25 Dollars%2C you pay only 16 Dollars. </p> <p> Alex is currently having a sandwich. <b> How likely is it%2C in your opinion%2C that she also ordered soup? </b> </p>,8,NULL,10826
# Columns below this comment are as follows:
# 1. Time results were received.
# 2. MD5 hash of participant's IP address.
# 3. Controller name.
# 4. Item number.
# 5. Element number.
# 6. Type.
# 7. Group.
# 8. Field name.
# 9. Field value.
1557171004,2eedc07a7b3c0292a7e8bd2fc65e095b,Form,8,0,comprehension,NULL,q1,Alex
1557171004,2eedc07a7b3c0292a7e8bd2fc65e095b,Form,8,0,comprehension,NULL,q2,no
1557171004,2eedc07a7b3c0292a7e8bd2fc65e095b,Form,8,0,comprehension,NULL,_REACTION_TIME_,6821
1557171004,2eedc07a7b3c0292a7e8bd2fc65e095b,Form,9,0,outro,NULL,nativeq,yes
1557171004,2eedc07a7b3c0292a7e8bd2fc65e095b,Form,9,0,outro,NULL,_REACTION_TIME_,9557
#
# Results on Monday May 06 2019 19:30:29 UTC.
# USER AGENT: Mozilla/5.0 (Windows NT 10.0; Win64; x64) AppleWebKit/537.36 (KHTML, like Gecko) Chrome/74.0.3729.131 Safari/537.36
# Design number was non-random = 13
#
# The lines below this comment are in groups of 2.
# The formats of the lines in each of these groups are as follows:
#
# Line 1:
#     Col. 1: Time results were received.
#     Col. 2: MD5 hash of participant's IP address.
#     Col. 3: Controller name.
#     Col. 4: Item number.
#     Col. 5: Element number.
#     Col. 6: Type.
#     Col. 7: Group.
#     Col. 8: Field name.
#     Col. 9: Field value.
# Line 2:
#     Col. 1: Time results were received.
#     Col. 2: MD5 hash of participant's IP address.
#     Col. 3: Controller name.
#     Col. 4: Item number.
#     Col. 5: Element number.
#     Col. 6: Type.
#     Col. 7: Group.
#     Col. 8: Question (NULL if none).
#     Col. 9: Answer.
#     Col. 10: Whether or not answer was correct (NULL if N/A).
#     Col. 11: Time taken to answer.
1557171029,220499ff15d3c5849a68217dbe30899e,Form,1,0,intro,NULL,_REACTION_TIME_,10641
1557171029,220499ff15d3c5849a68217dbe30899e,Question,3,0,prior-16,1,<p> Alex is in a restaurant. The menu includes a sandwich which costs $15%2C and a soup which costs $10%2C as well pizza and other things. </p> <p> There is a special today. If you order both the sandwich and soup%2C you get a discount. Instead of paying 25 Dollars%2C you pay only 16 Dollars. </p> <p> Alex is currently having a sandwich. <b> How likely is it%2C in your opinion%2C that she also ordered soup? </b> </p>,9,NULL,14322
# Columns below this comment are as follows:
# 1. Time results were received.
# 2. MD5 hash of participant's IP address.
# 3. Controller name.
# 4. Item number.
# 5. Element number.
# 6. Type.
# 7. Group.
# 8. Field name.
# 9. Field value.
1557171029,220499ff15d3c5849a68217dbe30899e,Form,8,0,comprehension,NULL,q1,Alex
1557171029,220499ff15d3c5849a68217dbe30899e,Form,8,0,comprehension,NULL,q2,no
1557171029,220499ff15d3c5849a68217dbe30899e,Form,8,0,comprehension,NULL,_REACTION_TIME_,10462
1557171029,220499ff15d3c5849a68217dbe30899e,Form,9,0,outro,NULL,nativeq,yes
1557171029,220499ff15d3c5849a68217dbe30899e,Form,9,0,outro,NULL,_REACTION_TIME_,15454
#
# Results on Monday May 06 2019 19:53:53 UTC.
# USER AGENT: Mozilla/5.0 (X11; CrOS x86_64 11316.148.0) AppleWebKit/537.36 (KHTML, like Gecko) Chrome/72.0.3626.117 Safari/537.36
# Design number was non-random = 16
#
# The lines below this comment are in groups of 2.
# The formats of the lines in each of these groups are as follows:
#
# Line 1:
#     Col. 1: Time results were received.
#     Col. 2: MD5 hash of participant's IP address.
#     Col. 3: Controller name.
#     Col. 4: Item number.
#     Col. 5: Element number.
#     Col. 6: Type.
#     Col. 7: Group.
#     Col. 8: Field name.
#     Col. 9: Field value.
# Line 2:
#     Col. 1: Time results were received.
#     Col. 2: MD5 hash of participant's IP address.
#     Col. 3: Controller name.
#     Col. 4: Item number.
#     Col. 5: Element number.
#     Col. 6: Type.
#     Col. 7: Group.
#     Col. 8: Question (NULL if none).
#     Col. 9: Answer.
#     Col. 10: Whether or not answer was correct (NULL if N/A).
#     Col. 11: Time taken to answer.
1557172433,f7db35b2b623ca4f58dc20076d5efa73,Form,1,0,intro,NULL,_REACTION_TIME_,2661
1557172433,f7db35b2b623ca4f58dc20076d5efa73,Question,6,0,prior-22,1,<p> Alex is in a restaurant. The menu includes a sandwich which costs $15%2C and a soup which costs $10%2C as well pizza and other things. </p> <p> There is a special today. If you order both the sandwich and soup%2C you get a discount. Instead of paying 25 Dollars%2C you pay only 22 Dollars. </p> <p> Alex is currently having a sandwich. <b> How likely is it%2C in your opinion%2C that she also ordered soup? </b> </p>,6,NULL,35546
# Columns below this comment are as follows:
# 1. Time results were received.
# 2. MD5 hash of participant's IP address.
# 3. Controller name.
# 4. Item number.
# 5. Element number.
# 6. Type.
# 7. Group.
# 8. Field name.
# 9. Field value.
1557172433,f7db35b2b623ca4f58dc20076d5efa73,Form,8,0,comprehension,NULL,q1,Alex
1557172433,f7db35b2b623ca4f58dc20076d5efa73,Form,8,0,comprehension,NULL,q2,no
1557172433,f7db35b2b623ca4f58dc20076d5efa73,Form,8,0,comprehension,NULL,_REACTION_TIME_,4955
1557172433,f7db35b2b623ca4f58dc20076d5efa73,Form,9,0,outro,NULL,nativeq,yes
1557172433,f7db35b2b623ca4f58dc20076d5efa73,Form,9,0,outro,NULL,_REACTION_TIME_,9523
#
# Results on Monday May 06 2019 19:54:00 UTC.
# USER AGENT: Mozilla/5.0 (Windows NT 10.0; Win64; x64; rv:66.0) Gecko/20100101 Firefox/66.0
# Design number was non-random = 16
#
# The lines below this comment are in groups of 2.
# The formats of the lines in each of these groups are as follows:
#
# Line 1:
#     Col. 1: Time results were received.
#     Col. 2: MD5 hash of participant's IP address.
#     Col. 3: Controller name.
#     Col. 4: Item number.
#     Col. 5: Element number.
#     Col. 6: Type.
#     Col. 7: Group.
#     Col. 8: Field name.
#     Col. 9: Field value.
# Line 2:
#     Col. 1: Time results were received.
#     Col. 2: MD5 hash of participant's IP address.
#     Col. 3: Controller name.
#     Col. 4: Item number.
#     Col. 5: Element number.
#     Col. 6: Type.
#     Col. 7: Group.
#     Col. 8: Question (NULL if none).
#     Col. 9: Answer.
#     Col. 10: Whether or not answer was correct (NULL if N/A).
#     Col. 11: Time taken to answer.
1557172440,64cd995157c4a8b6398f951182d67be6,Form,1,0,intro,NULL,_REACTION_TIME_,1859
1557172440,64cd995157c4a8b6398f951182d67be6,Question,6,0,prior-22,1,<p> Alex is in a restaurant. The menu includes a sandwich which costs $15%2C and a soup which costs $10%2C as well pizza and other things. </p> <p> There is a special today. If you order both the sandwich and soup%2C you get a discount. Instead of paying 25 Dollars%2C you pay only 22 Dollars. </p> <p> Alex is currently having a sandwich. <b> How likely is it%2C in your opinion%2C that she also ordered soup? </b> </p>,8,NULL,9853
# Columns below this comment are as follows:
# 1. Time results were received.
# 2. MD5 hash of participant's IP address.
# 3. Controller name.
# 4. Item number.
# 5. Element number.
# 6. Type.
# 7. Group.
# 8. Field name.
# 9. Field value.
1557172440,64cd995157c4a8b6398f951182d67be6,Form,8,0,comprehension,NULL,q1,Alex
1557172440,64cd995157c4a8b6398f951182d67be6,Form,8,0,comprehension,NULL,q2,no
1557172440,64cd995157c4a8b6398f951182d67be6,Form,8,0,comprehension,NULL,_REACTION_TIME_,9025
1557172440,64cd995157c4a8b6398f951182d67be6,Form,9,0,outro,NULL,nativeq,yes
1557172440,64cd995157c4a8b6398f951182d67be6,Form,9,0,outro,NULL,_REACTION_TIME_,4244
#
# Results on Monday May 06 2019 19:54:11 UTC.
# USER AGENT: Mozilla/5.0 (Windows NT 10.0; Win64; x64) AppleWebKit/537.36 (KHTML, like Gecko) Chrome/73.0.3683.103 Safari/537.36
# Design number was non-random = 16
#
# The lines below this comment are in groups of 2.
# The formats of the lines in each of these groups are as follows:
#
# Line 1:
#     Col. 1: Time results were received.
#     Col. 2: MD5 hash of participant's IP address.
#     Col. 3: Controller name.
#     Col. 4: Item number.
#     Col. 5: Element number.
#     Col. 6: Type.
#     Col. 7: Group.
#     Col. 8: Field name.
#     Col. 9: Field value.
# Line 2:
#     Col. 1: Time results were received.
#     Col. 2: MD5 hash of participant's IP address.
#     Col. 3: Controller name.
#     Col. 4: Item number.
#     Col. 5: Element number.
#     Col. 6: Type.
#     Col. 7: Group.
#     Col. 8: Question (NULL if none).
#     Col. 9: Answer.
#     Col. 10: Whether or not answer was correct (NULL if N/A).
#     Col. 11: Time taken to answer.
1557172452,b213e9ec9fa546127439e51f3a771209,Form,1,0,intro,NULL,_REACTION_TIME_,4980
1557172452,b213e9ec9fa546127439e51f3a771209,Question,6,0,prior-22,1,<p> Alex is in a restaurant. The menu includes a sandwich which costs $15%2C and a soup which costs $10%2C as well pizza and other things. </p> <p> There is a special today. If you order both the sandwich and soup%2C you get a discount. Instead of paying 25 Dollars%2C you pay only 22 Dollars. </p> <p> Alex is currently having a sandwich. <b> How likely is it%2C in your opinion%2C that she also ordered soup? </b> </p>,3,NULL,29741
# Columns below this comment are as follows:
# 1. Time results were received.
# 2. MD5 hash of participant's IP address.
# 3. Controller name.
# 4. Item number.
# 5. Element number.
# 6. Type.
# 7. Group.
# 8. Field name.
# 9. Field value.
1557172452,b213e9ec9fa546127439e51f3a771209,Form,8,0,comprehension,NULL,q1,Alex
1557172452,b213e9ec9fa546127439e51f3a771209,Form,8,0,comprehension,NULL,q2,yes
1557172452,b213e9ec9fa546127439e51f3a771209,Form,8,0,comprehension,NULL,_REACTION_TIME_,8239
1557172452,b213e9ec9fa546127439e51f3a771209,Form,9,0,outro,NULL,nativeq,yes
1557172452,b213e9ec9fa546127439e51f3a771209,Form,9,0,outro,NULL,_REACTION_TIME_,15170
#
# Results on Monday May 06 2019 19:54:17 UTC.
# USER AGENT: Mozilla/5.0 (Macintosh; Intel Mac OS X 10_14_4) AppleWebKit/537.36 (KHTML, like Gecko) Chrome/73.0.3683.103 Safari/537.36
# Design number was non-random = 16
#
# The lines below this comment are in groups of 2.
# The formats of the lines in each of these groups are as follows:
#
# Line 1:
#     Col. 1: Time results were received.
#     Col. 2: MD5 hash of participant's IP address.
#     Col. 3: Controller name.
#     Col. 4: Item number.
#     Col. 5: Element number.
#     Col. 6: Type.
#     Col. 7: Group.
#     Col. 8: Field name.
#     Col. 9: Field value.
# Line 2:
#     Col. 1: Time results were received.
#     Col. 2: MD5 hash of participant's IP address.
#     Col. 3: Controller name.
#     Col. 4: Item number.
#     Col. 5: Element number.
#     Col. 6: Type.
#     Col. 7: Group.
#     Col. 8: Question (NULL if none).
#     Col. 9: Answer.
#     Col. 10: Whether or not answer was correct (NULL if N/A).
#     Col. 11: Time taken to answer.
1557172457,08a3a58b6f4e21c66c1ee0e3a3c7b3a9,Form,1,0,intro,NULL,_REACTION_TIME_,2554
1557172457,08a3a58b6f4e21c66c1ee0e3a3c7b3a9,Question,6,0,prior-22,1,<p> Alex is in a restaurant. The menu includes a sandwich which costs $15%2C and a soup which costs $10%2C as well pizza and other things. </p> <p> There is a special today. If you order both the sandwich and soup%2C you get a discount. Instead of paying 25 Dollars%2C you pay only 22 Dollars. </p> <p> Alex is currently having a sandwich. <b> How likely is it%2C in your opinion%2C that she also ordered soup? </b> </p>,3,NULL,14563
# Columns below this comment are as follows:
# 1. Time results were received.
# 2. MD5 hash of participant's IP address.
# 3. Controller name.
# 4. Item number.
# 5. Element number.
# 6. Type.
# 7. Group.
# 8. Field name.
# 9. Field value.
1557172457,08a3a58b6f4e21c66c1ee0e3a3c7b3a9,Form,8,0,comprehension,NULL,q1,Alex
1557172457,08a3a58b6f4e21c66c1ee0e3a3c7b3a9,Form,8,0,comprehension,NULL,q2,no
1557172457,08a3a58b6f4e21c66c1ee0e3a3c7b3a9,Form,8,0,comprehension,NULL,_REACTION_TIME_,6939
1557172457,08a3a58b6f4e21c66c1ee0e3a3c7b3a9,Form,9,0,outro,NULL,nativeq,yes
1557172457,08a3a58b6f4e21c66c1ee0e3a3c7b3a9,Form,9,0,outro,NULL,_REACTION_TIME_,7659
#
# Results on Monday May 06 2019 19:54:21 UTC.
# USER AGENT: Mozilla/5.0 (Windows NT 10.0; Win64; x64) AppleWebKit/537.36 (KHTML, like Gecko) Chrome/74.0.3729.131 Safari/537.36
# Design number was non-random = 16
#
# The lines below this comment are in groups of 2.
# The formats of the lines in each of these groups are as follows:
#
# Line 1:
#     Col. 1: Time results were received.
#     Col. 2: MD5 hash of participant's IP address.
#     Col. 3: Controller name.
#     Col. 4: Item number.
#     Col. 5: Element number.
#     Col. 6: Type.
#     Col. 7: Group.
#     Col. 8: Field name.
#     Col. 9: Field value.
# Line 2:
#     Col. 1: Time results were received.
#     Col. 2: MD5 hash of participant's IP address.
#     Col. 3: Controller name.
#     Col. 4: Item number.
#     Col. 5: Element number.
#     Col. 6: Type.
#     Col. 7: Group.
#     Col. 8: Question (NULL if none).
#     Col. 9: Answer.
#     Col. 10: Whether or not answer was correct (NULL if N/A).
#     Col. 11: Time taken to answer.
1557172462,1a5a1a77e397a39d52255527514772e5,Form,1,0,intro,NULL,_REACTION_TIME_,5016
1557172462,1a5a1a77e397a39d52255527514772e5,Question,6,0,prior-22,1,<p> Alex is in a restaurant. The menu includes a sandwich which costs $15%2C and a soup which costs $10%2C as well pizza and other things. </p> <p> There is a special today. If you order both the sandwich and soup%2C you get a discount. Instead of paying 25 Dollars%2C you pay only 22 Dollars. </p> <p> Alex is currently having a sandwich. <b> How likely is it%2C in your opinion%2C that she also ordered soup? </b> </p>,8,NULL,21553
# Columns below this comment are as follows:
# 1. Time results were received.
# 2. MD5 hash of participant's IP address.
# 3. Controller name.
# 4. Item number.
# 5. Element number.
# 6. Type.
# 7. Group.
# 8. Field name.
# 9. Field value.
1557172462,1a5a1a77e397a39d52255527514772e5,Form,8,0,comprehension,NULL,q1,Alex
1557172462,1a5a1a77e397a39d52255527514772e5,Form,8,0,comprehension,NULL,q2,no
1557172462,1a5a1a77e397a39d52255527514772e5,Form,8,0,comprehension,NULL,_REACTION_TIME_,10317
1557172462,1a5a1a77e397a39d52255527514772e5,Form,9,0,outro,NULL,nativeq,yes
1557172462,1a5a1a77e397a39d52255527514772e5,Form,9,0,outro,NULL,_REACTION_TIME_,16453
#
# Results on Monday May 06 2019 19:54:43 UTC.
# USER AGENT: Mozilla/5.0 (Macintosh; Intel Mac OS X 10_14_4) AppleWebKit/605.1.15 (KHTML, like Gecko) Version/12.1 Safari/605.1.15
# Design number was non-random = 18
#
# The lines below this comment are in groups of 2.
# The formats of the lines in each of these groups are as follows:
#
# Line 1:
#     Col. 1: Time results were received.
#     Col. 2: MD5 hash of participant's IP address.
#     Col. 3: Controller name.
#     Col. 4: Item number.
#     Col. 5: Element number.
#     Col. 6: Type.
#     Col. 7: Group.
#     Col. 8: Field name.
#     Col. 9: Field value.
# Line 2:
#     Col. 1: Time results were received.
#     Col. 2: MD5 hash of participant's IP address.
#     Col. 3: Controller name.
#     Col. 4: Item number.
#     Col. 5: Element number.
#     Col. 6: Type.
#     Col. 7: Group.
#     Col. 8: Question (NULL if none).
#     Col. 9: Answer.
#     Col. 10: Whether or not answer was correct (NULL if N/A).
#     Col. 11: Time taken to answer.
1557172484,f66bb537e31ec96c426f4a6a3cdab851,Form,1,0,intro,NULL,_REACTION_TIME_,6911
1557172484,f66bb537e31ec96c426f4a6a3cdab851,Question,2,0,prior-15,1,<p> Alex is in a restaurant. The menu includes a sandwich which costs $15%2C and a soup which costs $10%2C as well pizza and other things. </p> <p> There is a special today. If you order both the sandwich and soup%2C you get a discount. Instead of paying 25 Dollars%2C you pay only 15 Dollars. </p> <p> Alex is currently having a sandwich. <b> How likely is it%2C in your opinion%2C that she also ordered soup? </b> </p>,7,NULL,14024
# Columns below this comment are as follows:
# 1. Time results were received.
# 2. MD5 hash of participant's IP address.
# 3. Controller name.
# 4. Item number.
# 5. Element number.
# 6. Type.
# 7. Group.
# 8. Field name.
# 9. Field value.
1557172484,f66bb537e31ec96c426f4a6a3cdab851,Form,8,0,comprehension,NULL,q1,Alex
1557172484,f66bb537e31ec96c426f4a6a3cdab851,Form,8,0,comprehension,NULL,q2,no
1557172484,f66bb537e31ec96c426f4a6a3cdab851,Form,8,0,comprehension,NULL,_REACTION_TIME_,4099
1557172484,f66bb537e31ec96c426f4a6a3cdab851,Form,9,0,outro,NULL,nativeq,yes
1557172484,f66bb537e31ec96c426f4a6a3cdab851,Form,9,0,outro,NULL,_REACTION_TIME_,13093
#
# Results on Monday May 06 2019 19:55:13 UTC.
# USER AGENT: Mozilla/5.0 (Macintosh; Intel Mac OS X 10_12_6) AppleWebKit/605.1.15 (KHTML, like Gecko) Version/12.1 Safari/605.1.15
# Design number was non-random = 19
#
# The lines below this comment are in groups of 2.
# The formats of the lines in each of these groups are as follows:
#
# Line 1:
#     Col. 1: Time results were received.
#     Col. 2: MD5 hash of participant's IP address.
#     Col. 3: Controller name.
#     Col. 4: Item number.
#     Col. 5: Element number.
#     Col. 6: Type.
#     Col. 7: Group.
#     Col. 8: Field name.
#     Col. 9: Field value.
# Line 2:
#     Col. 1: Time results were received.
#     Col. 2: MD5 hash of participant's IP address.
#     Col. 3: Controller name.
#     Col. 4: Item number.
#     Col. 5: Element number.
#     Col. 6: Type.
#     Col. 7: Group.
#     Col. 8: Question (NULL if none).
#     Col. 9: Answer.
#     Col. 10: Whether or not answer was correct (NULL if N/A).
#     Col. 11: Time taken to answer.
1557172514,797ed4d60ec7a11ddaf2b3dd0e36f7b1,Form,1,0,intro,NULL,_REACTION_TIME_,5417
1557172514,797ed4d60ec7a11ddaf2b3dd0e36f7b1,Question,3,0,prior-16,1,<p> Alex is in a restaurant. The menu includes a sandwich which costs $15%2C and a soup which costs $10%2C as well pizza and other things. </p> <p> There is a special today. If you order both the sandwich and soup%2C you get a discount. Instead of paying 25 Dollars%2C you pay only 16 Dollars. </p> <p> Alex is currently having a sandwich. <b> How likely is it%2C in your opinion%2C that she also ordered soup? </b> </p>,9,NULL,37072
# Columns below this comment are as follows:
# 1. Time results were received.
# 2. MD5 hash of participant's IP address.
# 3. Controller name.
# 4. Item number.
# 5. Element number.
# 6. Type.
# 7. Group.
# 8. Field name.
# 9. Field value.
1557172514,797ed4d60ec7a11ddaf2b3dd0e36f7b1,Form,8,0,comprehension,NULL,q1,Alex
1557172514,797ed4d60ec7a11ddaf2b3dd0e36f7b1,Form,8,0,comprehension,NULL,q2,no
1557172514,797ed4d60ec7a11ddaf2b3dd0e36f7b1,Form,8,0,comprehension,NULL,_REACTION_TIME_,5192
1557172514,797ed4d60ec7a11ddaf2b3dd0e36f7b1,Form,9,0,outro,NULL,nativeq,yes
1557172514,797ed4d60ec7a11ddaf2b3dd0e36f7b1,Form,9,0,outro,NULL,_REACTION_TIME_,8512
#
# Results on Monday May 06 2019 19:55:14 UTC.
# USER AGENT: Mozilla/5.0 (X11; CrOS x86_64 11647.154.0) AppleWebKit/537.36 (KHTML, like Gecko) Chrome/73.0.3683.114 Safari/537.36
# Design number was non-random = 22
#
# The lines below this comment are in groups of 2.
# The formats of the lines in each of these groups are as follows:
#
# Line 1:
#     Col. 1: Time results were received.
#     Col. 2: MD5 hash of participant's IP address.
#     Col. 3: Controller name.
#     Col. 4: Item number.
#     Col. 5: Element number.
#     Col. 6: Type.
#     Col. 7: Group.
#     Col. 8: Field name.
#     Col. 9: Field value.
# Line 2:
#     Col. 1: Time results were received.
#     Col. 2: MD5 hash of participant's IP address.
#     Col. 3: Controller name.
#     Col. 4: Item number.
#     Col. 5: Element number.
#     Col. 6: Type.
#     Col. 7: Group.
#     Col. 8: Question (NULL if none).
#     Col. 9: Answer.
#     Col. 10: Whether or not answer was correct (NULL if N/A).
#     Col. 11: Time taken to answer.
1557172515,5a78bc6ee51008a02344ec05e049476c,Form,1,0,intro,NULL,_REACTION_TIME_,4249
1557172515,5a78bc6ee51008a02344ec05e049476c,Question,6,0,prior-22,1,<p> Alex is in a restaurant. The menu includes a sandwich which costs $15%2C and a soup which costs $10%2C as well pizza and other things. </p> <p> There is a special today. If you order both the sandwich and soup%2C you get a discount. Instead of paying 25 Dollars%2C you pay only 22 Dollars. </p> <p> Alex is currently having a sandwich. <b> How likely is it%2C in your opinion%2C that she also ordered soup? </b> </p>,4,NULL,10319
# Columns below this comment are as follows:
# 1. Time results were received.
# 2. MD5 hash of participant's IP address.
# 3. Controller name.
# 4. Item number.
# 5. Element number.
# 6. Type.
# 7. Group.
# 8. Field name.
# 9. Field value.
1557172515,5a78bc6ee51008a02344ec05e049476c,Form,8,0,comprehension,NULL,q1,Alex
1557172515,5a78bc6ee51008a02344ec05e049476c,Form,8,0,comprehension,NULL,q2,no
1557172515,5a78bc6ee51008a02344ec05e049476c,Form,8,0,comprehension,NULL,_REACTION_TIME_,5690
1557172515,5a78bc6ee51008a02344ec05e049476c,Form,9,0,outro,NULL,nativeq,yes
1557172515,5a78bc6ee51008a02344ec05e049476c,Form,9,0,outro,NULL,_REACTION_TIME_,3453
#
# Results on Monday May 06 2019 19:55:29 UTC.
# USER AGENT: Mozilla/5.0 (Macintosh; Intel Mac OS X 10_14_4) AppleWebKit/537.36 (KHTML, like Gecko) Chrome/73.0.3683.103 Safari/537.36
# Design number was non-random = 21
#
# The lines below this comment are in groups of 2.
# The formats of the lines in each of these groups are as follows:
#
# Line 1:
#     Col. 1: Time results were received.
#     Col. 2: MD5 hash of participant's IP address.
#     Col. 3: Controller name.
#     Col. 4: Item number.
#     Col. 5: Element number.
#     Col. 6: Type.
#     Col. 7: Group.
#     Col. 8: Field name.
#     Col. 9: Field value.
# Line 2:
#     Col. 1: Time results were received.
#     Col. 2: MD5 hash of participant's IP address.
#     Col. 3: Controller name.
#     Col. 4: Item number.
#     Col. 5: Element number.
#     Col. 6: Type.
#     Col. 7: Group.
#     Col. 8: Question (NULL if none).
#     Col. 9: Answer.
#     Col. 10: Whether or not answer was correct (NULL if N/A).
#     Col. 11: Time taken to answer.
1557172529,1fd81ed42f33f28b0b2c9dfec98a1d8c,Form,1,0,intro,NULL,_REACTION_TIME_,11740
1557172529,1fd81ed42f33f28b0b2c9dfec98a1d8c,Question,5,0,prior-20,1,<p> Alex is in a restaurant. The menu includes a sandwich which costs $15%2C and a soup which costs $10%2C as well pizza and other things. </p> <p> There is a special today. If you order both the sandwich and soup%2C you get a discount. Instead of paying 25 Dollars%2C you pay only 20 Dollars. </p> <p> Alex is currently having a sandwich. <b> How likely is it%2C in your opinion%2C that she also ordered soup? </b> </p>,8,NULL,25700
# Columns below this comment are as follows:
# 1. Time results were received.
# 2. MD5 hash of participant's IP address.
# 3. Controller name.
# 4. Item number.
# 5. Element number.
# 6. Type.
# 7. Group.
# 8. Field name.
# 9. Field value.
1557172529,1fd81ed42f33f28b0b2c9dfec98a1d8c,Form,8,0,comprehension,NULL,q1,Alex
1557172529,1fd81ed42f33f28b0b2c9dfec98a1d8c,Form,8,0,comprehension,NULL,q2,no
1557172529,1fd81ed42f33f28b0b2c9dfec98a1d8c,Form,8,0,comprehension,NULL,_REACTION_TIME_,6257
1557172529,1fd81ed42f33f28b0b2c9dfec98a1d8c,Form,9,0,outro,NULL,nativeq,yes
1557172529,1fd81ed42f33f28b0b2c9dfec98a1d8c,Form,9,0,outro,NULL,_REACTION_TIME_,12011
#
# Results on Monday May 06 2019 19:55:46 UTC.
# USER AGENT: Mozilla/5.0 (Macintosh; Intel Mac OS X 10_14_3) AppleWebKit/537.36 (KHTML, like Gecko) Chrome/73.0.3683.86 Safari/537.36
# Design number was non-random = 22
#
# The lines below this comment are in groups of 2.
# The formats of the lines in each of these groups are as follows:
#
# Line 1:
#     Col. 1: Time results were received.
#     Col. 2: MD5 hash of participant's IP address.
#     Col. 3: Controller name.
#     Col. 4: Item number.
#     Col. 5: Element number.
#     Col. 6: Type.
#     Col. 7: Group.
#     Col. 8: Field name.
#     Col. 9: Field value.
# Line 2:
#     Col. 1: Time results were received.
#     Col. 2: MD5 hash of participant's IP address.
#     Col. 3: Controller name.
#     Col. 4: Item number.
#     Col. 5: Element number.
#     Col. 6: Type.
#     Col. 7: Group.
#     Col. 8: Question (NULL if none).
#     Col. 9: Answer.
#     Col. 10: Whether or not answer was correct (NULL if N/A).
#     Col. 11: Time taken to answer.
1557172547,7581a2a39314dc7be127caef5ee66efb,Form,1,0,intro,NULL,_REACTION_TIME_,9777
1557172547,7581a2a39314dc7be127caef5ee66efb,Question,6,0,prior-22,1,<p> Alex is in a restaurant. The menu includes a sandwich which costs $15%2C and a soup which costs $10%2C as well pizza and other things. </p> <p> There is a special today. If you order both the sandwich and soup%2C you get a discount. Instead of paying 25 Dollars%2C you pay only 22 Dollars. </p> <p> Alex is currently having a sandwich. <b> How likely is it%2C in your opinion%2C that she also ordered soup? </b> </p>,3,NULL,21461
# Columns below this comment are as follows:
# 1. Time results were received.
# 2. MD5 hash of participant's IP address.
# 3. Controller name.
# 4. Item number.
# 5. Element number.
# 6. Type.
# 7. Group.
# 8. Field name.
# 9. Field value.
1557172547,7581a2a39314dc7be127caef5ee66efb,Form,8,0,comprehension,NULL,q1,Alex
1557172547,7581a2a39314dc7be127caef5ee66efb,Form,8,0,comprehension,NULL,q2,no
1557172547,7581a2a39314dc7be127caef5ee66efb,Form,8,0,comprehension,NULL,_REACTION_TIME_,8313
1557172547,7581a2a39314dc7be127caef5ee66efb,Form,9,0,outro,NULL,nativeq,yes
1557172547,7581a2a39314dc7be127caef5ee66efb,Form,9,0,outro,NULL,_REACTION_TIME_,9321
#
# Results on Monday May 06 2019 19:56:30 UTC.
# USER AGENT: Mozilla/5.0 (Windows NT 6.1) AppleWebKit/537.36 (KHTML, like Gecko) Chrome/73.0.3683.103 Safari/537.36
# Design number was non-random = 26
#
# The lines below this comment are in groups of 2.
# The formats of the lines in each of these groups are as follows:
#
# Line 1:
#     Col. 1: Time results were received.
#     Col. 2: MD5 hash of participant's IP address.
#     Col. 3: Controller name.
#     Col. 4: Item number.
#     Col. 5: Element number.
#     Col. 6: Type.
#     Col. 7: Group.
#     Col. 8: Field name.
#     Col. 9: Field value.
# Line 2:
#     Col. 1: Time results were received.
#     Col. 2: MD5 hash of participant's IP address.
#     Col. 3: Controller name.
#     Col. 4: Item number.
#     Col. 5: Element number.
#     Col. 6: Type.
#     Col. 7: Group.
#     Col. 8: Question (NULL if none).
#     Col. 9: Answer.
#     Col. 10: Whether or not answer was correct (NULL if N/A).
#     Col. 11: Time taken to answer.
1557172590,89d449086404a2c1f65507bcdac65310,Form,1,0,intro,NULL,_REACTION_TIME_,3524
1557172590,89d449086404a2c1f65507bcdac65310,Question,4,0,prior-18,1,<p> Alex is in a restaurant. The menu includes a sandwich which costs $15%2C and a soup which costs $10%2C as well pizza and other things. </p> <p> There is a special today. If you order both the sandwich and soup%2C you get a discount. Instead of paying 25 Dollars%2C you pay only 18 Dollars. </p> <p> Alex is currently having a sandwich. <b> How likely is it%2C in your opinion%2C that she also ordered soup? </b> </p>,7,NULL,16231
# Columns below this comment are as follows:
# 1. Time results were received.
# 2. MD5 hash of participant's IP address.
# 3. Controller name.
# 4. Item number.
# 5. Element number.
# 6. Type.
# 7. Group.
# 8. Field name.
# 9. Field value.
1557172590,89d449086404a2c1f65507bcdac65310,Form,8,0,comprehension,NULL,q1,Alex
1557172590,89d449086404a2c1f65507bcdac65310,Form,8,0,comprehension,NULL,q2,no
1557172590,89d449086404a2c1f65507bcdac65310,Form,8,0,comprehension,NULL,_REACTION_TIME_,8492
1557172590,89d449086404a2c1f65507bcdac65310,Form,9,0,outro,NULL,nativeq,yes
1557172590,89d449086404a2c1f65507bcdac65310,Form,9,0,outro,NULL,_REACTION_TIME_,9749
#
# Results on Monday May 06 2019 19:56:52 UTC.
# USER AGENT: Mozilla/5.0 (Windows NT 6.1; Win64; x64) AppleWebKit/537.36 (KHTML, like Gecko) Chrome/74.0.3729.131 Safari/537.36
# Design number was non-random = 26
#
# The lines below this comment are in groups of 2.
# The formats of the lines in each of these groups are as follows:
#
# Line 1:
#     Col. 1: Time results were received.
#     Col. 2: MD5 hash of participant's IP address.
#     Col. 3: Controller name.
#     Col. 4: Item number.
#     Col. 5: Element number.
#     Col. 6: Type.
#     Col. 7: Group.
#     Col. 8: Field name.
#     Col. 9: Field value.
# Line 2:
#     Col. 1: Time results were received.
#     Col. 2: MD5 hash of participant's IP address.
#     Col. 3: Controller name.
#     Col. 4: Item number.
#     Col. 5: Element number.
#     Col. 6: Type.
#     Col. 7: Group.
#     Col. 8: Question (NULL if none).
#     Col. 9: Answer.
#     Col. 10: Whether or not answer was correct (NULL if N/A).
#     Col. 11: Time taken to answer.
1557172613,1881f3dbf05b0ee3c71577ddbf5b13d7,Form,1,0,intro,NULL,_REACTION_TIME_,3654
1557172613,1881f3dbf05b0ee3c71577ddbf5b13d7,Question,4,0,prior-18,1,<p> Alex is in a restaurant. The menu includes a sandwich which costs $15%2C and a soup which costs $10%2C as well pizza and other things. </p> <p> There is a special today. If you order both the sandwich and soup%2C you get a discount. Instead of paying 25 Dollars%2C you pay only 18 Dollars. </p> <p> Alex is currently having a sandwich. <b> How likely is it%2C in your opinion%2C that she also ordered soup? </b> </p>,7,NULL,13352
# Columns below this comment are as follows:
# 1. Time results were received.
# 2. MD5 hash of participant's IP address.
# 3. Controller name.
# 4. Item number.
# 5. Element number.
# 6. Type.
# 7. Group.
# 8. Field name.
# 9. Field value.
1557172613,1881f3dbf05b0ee3c71577ddbf5b13d7,Form,8,0,comprehension,NULL,q1,Alex
1557172613,1881f3dbf05b0ee3c71577ddbf5b13d7,Form,8,0,comprehension,NULL,q2,no
1557172613,1881f3dbf05b0ee3c71577ddbf5b13d7,Form,8,0,comprehension,NULL,_REACTION_TIME_,4462
1557172613,1881f3dbf05b0ee3c71577ddbf5b13d7,Form,9,0,outro,NULL,nativeq,yes
1557172613,1881f3dbf05b0ee3c71577ddbf5b13d7,Form,9,0,outro,NULL,_REACTION_TIME_,7438
#
# Results on Monday May 06 2019 19:57:25 UTC.
# USER AGENT: Mozilla/5.0 (Windows NT 10.0; Win64; x64) AppleWebKit/537.36 (KHTML, like Gecko) Chrome/74.0.3729.131 Safari/537.36
# Design number was non-random = 26
#
# The lines below this comment are in groups of 2.
# The formats of the lines in each of these groups are as follows:
#
# Line 1:
#     Col. 1: Time results were received.
#     Col. 2: MD5 hash of participant's IP address.
#     Col. 3: Controller name.
#     Col. 4: Item number.
#     Col. 5: Element number.
#     Col. 6: Type.
#     Col. 7: Group.
#     Col. 8: Field name.
#     Col. 9: Field value.
# Line 2:
#     Col. 1: Time results were received.
#     Col. 2: MD5 hash of participant's IP address.
#     Col. 3: Controller name.
#     Col. 4: Item number.
#     Col. 5: Element number.
#     Col. 6: Type.
#     Col. 7: Group.
#     Col. 8: Question (NULL if none).
#     Col. 9: Answer.
#     Col. 10: Whether or not answer was correct (NULL if N/A).
#     Col. 11: Time taken to answer.
1557172645,9174064193c5033deebefff93238e28c,Form,1,0,intro,NULL,_REACTION_TIME_,3860
1557172645,9174064193c5033deebefff93238e28c,Question,4,0,prior-18,1,<p> Alex is in a restaurant. The menu includes a sandwich which costs $15%2C and a soup which costs $10%2C as well pizza and other things. </p> <p> There is a special today. If you order both the sandwich and soup%2C you get a discount. Instead of paying 25 Dollars%2C you pay only 18 Dollars. </p> <p> Alex is currently having a sandwich. <b> How likely is it%2C in your opinion%2C that she also ordered soup? </b> </p>,3,NULL,11576
# Columns below this comment are as follows:
# 1. Time results were received.
# 2. MD5 hash of participant's IP address.
# 3. Controller name.
# 4. Item number.
# 5. Element number.
# 6. Type.
# 7. Group.
# 8. Field name.
# 9. Field value.
1557172645,9174064193c5033deebefff93238e28c,Form,8,0,comprehension,NULL,q1,Alex
1557172645,9174064193c5033deebefff93238e28c,Form,8,0,comprehension,NULL,q2,yes
1557172645,9174064193c5033deebefff93238e28c,Form,8,0,comprehension,NULL,_REACTION_TIME_,4917
1557172645,9174064193c5033deebefff93238e28c,Form,9,0,outro,NULL,nativeq,yes
1557172645,9174064193c5033deebefff93238e28c,Form,9,0,outro,NULL,_REACTION_TIME_,35878
#
# Results on Monday May 06 2019 19:58:09 UTC.
# USER AGENT: Mozilla/5.0 (Windows NT 10.0; Win64; x64) AppleWebKit/537.36 (KHTML, like Gecko) Chrome/73.0.3683.103 Safari/537.36
# Design number was non-random = 29
#
# The lines below this comment are in groups of 2.
# The formats of the lines in each of these groups are as follows:
#
# Line 1:
#     Col. 1: Time results were received.
#     Col. 2: MD5 hash of participant's IP address.
#     Col. 3: Controller name.
#     Col. 4: Item number.
#     Col. 5: Element number.
#     Col. 6: Type.
#     Col. 7: Group.
#     Col. 8: Field name.
#     Col. 9: Field value.
# Line 2:
#     Col. 1: Time results were received.
#     Col. 2: MD5 hash of participant's IP address.
#     Col. 3: Controller name.
#     Col. 4: Item number.
#     Col. 5: Element number.
#     Col. 6: Type.
#     Col. 7: Group.
#     Col. 8: Question (NULL if none).
#     Col. 9: Answer.
#     Col. 10: Whether or not answer was correct (NULL if N/A).
#     Col. 11: Time taken to answer.
1557172690,8c6c9d79a762648fbee105fe1f14ae30,Form,1,0,intro,NULL,_REACTION_TIME_,1355
1557172690,8c6c9d79a762648fbee105fe1f14ae30,Question,7,0,prior-24,1,<p> Alex is in a restaurant.  The menu includes a sandwich which costs $15%2C and a soup which costs $10%2C as well pizza and other things. </p> <p> There is a special today. If you order both the sandwich and soup%2C you get a discount. Instead of paying 25 Dollars%2C you pay only 24 Dollars. </p> <p> Alex is currently having a sandwich. <b> How likely is it%2C in your opinion%2C that she also ordered soup? </b> </p>,10,NULL,21384
# Columns below this comment are as follows:
# 1. Time results were received.
# 2. MD5 hash of participant's IP address.
# 3. Controller name.
# 4. Item number.
# 5. Element number.
# 6. Type.
# 7. Group.
# 8. Field name.
# 9. Field value.
1557172690,8c6c9d79a762648fbee105fe1f14ae30,Form,8,0,comprehension,NULL,q1,Alex
1557172690,8c6c9d79a762648fbee105fe1f14ae30,Form,8,0,comprehension,NULL,q2,no
1557172690,8c6c9d79a762648fbee105fe1f14ae30,Form,8,0,comprehension,NULL,_REACTION_TIME_,6497
1557172690,8c6c9d79a762648fbee105fe1f14ae30,Form,9,0,outro,NULL,nativeq,yes
1557172690,8c6c9d79a762648fbee105fe1f14ae30,Form,9,0,outro,NULL,_REACTION_TIME_,10264
#
# Results on Monday May 06 2019 19:58:51 UTC.
# USER AGENT: Mozilla/5.0 (Windows NT 10.0; Win64; x64; rv:66.0) Gecko/20100101 Firefox/66.0
# Design number was non-random = 28
#
# The lines below this comment are in groups of 2.
# The formats of the lines in each of these groups are as follows:
#
# Line 1:
#     Col. 1: Time results were received.
#     Col. 2: MD5 hash of participant's IP address.
#     Col. 3: Controller name.
#     Col. 4: Item number.
#     Col. 5: Element number.
#     Col. 6: Type.
#     Col. 7: Group.
#     Col. 8: Field name.
#     Col. 9: Field value.
# Line 2:
#     Col. 1: Time results were received.
#     Col. 2: MD5 hash of participant's IP address.
#     Col. 3: Controller name.
#     Col. 4: Item number.
#     Col. 5: Element number.
#     Col. 6: Type.
#     Col. 7: Group.
#     Col. 8: Question (NULL if none).
#     Col. 9: Answer.
#     Col. 10: Whether or not answer was correct (NULL if N/A).
#     Col. 11: Time taken to answer.
1557172732,8377c48354356d0f3a4dc875d85e4d04,Form,1,0,intro,NULL,_REACTION_TIME_,4121
1557172732,8377c48354356d0f3a4dc875d85e4d04,Question,6,0,prior-22,1,<p> Alex is in a restaurant. The menu includes a sandwich which costs $15%2C and a soup which costs $10%2C as well pizza and other things. </p> <p> There is a special today. If you order both the sandwich and soup%2C you get a discount. Instead of paying 25 Dollars%2C you pay only 22 Dollars. </p> <p> Alex is currently having a sandwich. <b> How likely is it%2C in your opinion%2C that she also ordered soup? </b> </p>,5,NULL,58498
# Columns below this comment are as follows:
# 1. Time results were received.
# 2. MD5 hash of participant's IP address.
# 3. Controller name.
# 4. Item number.
# 5. Element number.
# 6. Type.
# 7. Group.
# 8. Field name.
# 9. Field value.
1557172732,8377c48354356d0f3a4dc875d85e4d04,Form,8,0,comprehension,NULL,q1,Alex
1557172732,8377c48354356d0f3a4dc875d85e4d04,Form,8,0,comprehension,NULL,q2,no
1557172732,8377c48354356d0f3a4dc875d85e4d04,Form,8,0,comprehension,NULL,_REACTION_TIME_,8422
1557172732,8377c48354356d0f3a4dc875d85e4d04,Form,9,0,outro,NULL,_REACTION_TIME_,28030
#
# Results on Monday May 06 2019 19:58:53 UTC.
# USER AGENT: Mozilla/5.0 (Windows NT 10.0; Win64; x64) AppleWebKit/537.36 (KHTML, like Gecko) Chrome/73.0.3683.103 Safari/537.36
# Design number was non-random = 29
#
# The lines below this comment are in groups of 2.
# The formats of the lines in each of these groups are as follows:
#
# Line 1:
#     Col. 1: Time results were received.
#     Col. 2: MD5 hash of participant's IP address.
#     Col. 3: Controller name.
#     Col. 4: Item number.
#     Col. 5: Element number.
#     Col. 6: Type.
#     Col. 7: Group.
#     Col. 8: Field name.
#     Col. 9: Field value.
# Line 2:
#     Col. 1: Time results were received.
#     Col. 2: MD5 hash of participant's IP address.
#     Col. 3: Controller name.
#     Col. 4: Item number.
#     Col. 5: Element number.
#     Col. 6: Type.
#     Col. 7: Group.
#     Col. 8: Question (NULL if none).
#     Col. 9: Answer.
#     Col. 10: Whether or not answer was correct (NULL if N/A).
#     Col. 11: Time taken to answer.
1557172733,ae7cfd4b2ae9882fd49e2e82c2b76427,Form,1,0,intro,NULL,_REACTION_TIME_,12895
1557172733,ae7cfd4b2ae9882fd49e2e82c2b76427,Question,7,0,prior-24,1,<p> Alex is in a restaurant.  The menu includes a sandwich which costs $15%2C and a soup which costs $10%2C as well pizza and other things. </p> <p> There is a special today. If you order both the sandwich and soup%2C you get a discount. Instead of paying 25 Dollars%2C you pay only 24 Dollars. </p> <p> Alex is currently having a sandwich. <b> How likely is it%2C in your opinion%2C that she also ordered soup? </b> </p>,6,NULL,39754
# Columns below this comment are as follows:
# 1. Time results were received.
# 2. MD5 hash of participant's IP address.
# 3. Controller name.
# 4. Item number.
# 5. Element number.
# 6. Type.
# 7. Group.
# 8. Field name.
# 9. Field value.
1557172733,ae7cfd4b2ae9882fd49e2e82c2b76427,Form,8,0,comprehension,NULL,q1,Alex
1557172733,ae7cfd4b2ae9882fd49e2e82c2b76427,Form,8,0,comprehension,NULL,q2,no
1557172733,ae7cfd4b2ae9882fd49e2e82c2b76427,Form,8,0,comprehension,NULL,_REACTION_TIME_,18997
1557172733,ae7cfd4b2ae9882fd49e2e82c2b76427,Form,9,0,outro,NULL,nativeq,yes
1557172733,ae7cfd4b2ae9882fd49e2e82c2b76427,Form,9,0,outro,NULL,_REACTION_TIME_,7822
#
# Results on Monday May 06 2019 19:58:59 UTC.
# USER AGENT: Mozilla/5.0 (Windows NT 10.0; Win64; x64) AppleWebKit/537.36 (KHTML, like Gecko) Chrome/73.0.3683.103 Safari/537.36
# Design number was non-random = 29
#
# The lines below this comment are in groups of 2.
# The formats of the lines in each of these groups are as follows:
#
# Line 1:
#     Col. 1: Time results were received.
#     Col. 2: MD5 hash of participant's IP address.
#     Col. 3: Controller name.
#     Col. 4: Item number.
#     Col. 5: Element number.
#     Col. 6: Type.
#     Col. 7: Group.
#     Col. 8: Field name.
#     Col. 9: Field value.
# Line 2:
#     Col. 1: Time results were received.
#     Col. 2: MD5 hash of participant's IP address.
#     Col. 3: Controller name.
#     Col. 4: Item number.
#     Col. 5: Element number.
#     Col. 6: Type.
#     Col. 7: Group.
#     Col. 8: Question (NULL if none).
#     Col. 9: Answer.
#     Col. 10: Whether or not answer was correct (NULL if N/A).
#     Col. 11: Time taken to answer.
1557172740,38088c8944aff17bee2f487fe43efa59,Form,1,0,intro,NULL,_REACTION_TIME_,9755
1557172740,38088c8944aff17bee2f487fe43efa59,Question,7,0,prior-24,1,<p> Alex is in a restaurant.  The menu includes a sandwich which costs $15%2C and a soup which costs $10%2C as well pizza and other things. </p> <p> There is a special today. If you order both the sandwich and soup%2C you get a discount. Instead of paying 25 Dollars%2C you pay only 24 Dollars. </p> <p> Alex is currently having a sandwich. <b> How likely is it%2C in your opinion%2C that she also ordered soup? </b> </p>,5,NULL,16367
# Columns below this comment are as follows:
# 1. Time results were received.
# 2. MD5 hash of participant's IP address.
# 3. Controller name.
# 4. Item number.
# 5. Element number.
# 6. Type.
# 7. Group.
# 8. Field name.
# 9. Field value.
1557172740,38088c8944aff17bee2f487fe43efa59,Form,8,0,comprehension,NULL,q1,Alex
1557172740,38088c8944aff17bee2f487fe43efa59,Form,8,0,comprehension,NULL,q2,no
1557172740,38088c8944aff17bee2f487fe43efa59,Form,8,0,comprehension,NULL,_REACTION_TIME_,5448
1557172740,38088c8944aff17bee2f487fe43efa59,Form,9,0,outro,NULL,nativeq,yes
1557172740,38088c8944aff17bee2f487fe43efa59,Form,9,0,outro,NULL,_REACTION_TIME_,19748
#
# Results on Monday May 06 2019 19:59:07 UTC.
# USER AGENT: Mozilla/5.0 (Windows NT 10.0; Win64; x64) AppleWebKit/537.36 (KHTML, like Gecko) Chrome/73.0.3683.86 Safari/537.36
# Design number was non-random = 30
#
# The lines below this comment are in groups of 2.
# The formats of the lines in each of these groups are as follows:
#
# Line 1:
#     Col. 1: Time results were received.
#     Col. 2: MD5 hash of participant's IP address.
#     Col. 3: Controller name.
#     Col. 4: Item number.
#     Col. 5: Element number.
#     Col. 6: Type.
#     Col. 7: Group.
#     Col. 8: Field name.
#     Col. 9: Field value.
# Line 2:
#     Col. 1: Time results were received.
#     Col. 2: MD5 hash of participant's IP address.
#     Col. 3: Controller name.
#     Col. 4: Item number.
#     Col. 5: Element number.
#     Col. 6: Type.
#     Col. 7: Group.
#     Col. 8: Question (NULL if none).
#     Col. 9: Answer.
#     Col. 10: Whether or not answer was correct (NULL if N/A).
#     Col. 11: Time taken to answer.
1557172747,347db3827c4745ccb6c970315d2ecb0c,Form,1,0,intro,NULL,_REACTION_TIME_,1459
1557172747,347db3827c4745ccb6c970315d2ecb0c,Question,2,0,prior-15,1,<p> Alex is in a restaurant. The menu includes a sandwich which costs $15%2C and a soup which costs $10%2C as well pizza and other things. </p> <p> There is a special today. If you order both the sandwich and soup%2C you get a discount. Instead of paying 25 Dollars%2C you pay only 15 Dollars. </p> <p> Alex is currently having a sandwich. <b> How likely is it%2C in your opinion%2C that she also ordered soup? </b> </p>,8,NULL,7338
# Columns below this comment are as follows:
# 1. Time results were received.
# 2. MD5 hash of participant's IP address.
# 3. Controller name.
# 4. Item number.
# 5. Element number.
# 6. Type.
# 7. Group.
# 8. Field name.
# 9. Field value.
1557172747,347db3827c4745ccb6c970315d2ecb0c,Form,8,0,comprehension,NULL,q1,Alex
1557172747,347db3827c4745ccb6c970315d2ecb0c,Form,8,0,comprehension,NULL,q2,no
1557172747,347db3827c4745ccb6c970315d2ecb0c,Form,8,0,comprehension,NULL,_REACTION_TIME_,4749
1557172747,347db3827c4745ccb6c970315d2ecb0c,Form,9,0,outro,NULL,nativeq,yes
1557172747,347db3827c4745ccb6c970315d2ecb0c,Form,9,0,outro,NULL,_REACTION_TIME_,3973
#
# Results on Monday May 06 2019 19:59:25 UTC.
# USER AGENT: Mozilla/5.0 (Windows NT 10.0; Win64; x64) AppleWebKit/537.36 (KHTML, like Gecko) Chrome/73.0.3683.103 Safari/537.36
# Design number was non-random = 30
#
# The lines below this comment are in groups of 2.
# The formats of the lines in each of these groups are as follows:
#
# Line 1:
#     Col. 1: Time results were received.
#     Col. 2: MD5 hash of participant's IP address.
#     Col. 3: Controller name.
#     Col. 4: Item number.
#     Col. 5: Element number.
#     Col. 6: Type.
#     Col. 7: Group.
#     Col. 8: Field name.
#     Col. 9: Field value.
# Line 2:
#     Col. 1: Time results were received.
#     Col. 2: MD5 hash of participant's IP address.
#     Col. 3: Controller name.
#     Col. 4: Item number.
#     Col. 5: Element number.
#     Col. 6: Type.
#     Col. 7: Group.
#     Col. 8: Question (NULL if none).
#     Col. 9: Answer.
#     Col. 10: Whether or not answer was correct (NULL if N/A).
#     Col. 11: Time taken to answer.
1557172765,f08d0c694fb8a6bc71f99d20c383e5f2,Form,1,0,intro,NULL,_REACTION_TIME_,16969
1557172765,f08d0c694fb8a6bc71f99d20c383e5f2,Question,2,0,prior-15,1,<p> Alex is in a restaurant. The menu includes a sandwich which costs $15%2C and a soup which costs $10%2C as well pizza and other things. </p> <p> There is a special today. If you order both the sandwich and soup%2C you get a discount. Instead of paying 25 Dollars%2C you pay only 15 Dollars. </p> <p> Alex is currently having a sandwich. <b> How likely is it%2C in your opinion%2C that she also ordered soup? </b> </p>,7,NULL,22503
# Columns below this comment are as follows:
# 1. Time results were received.
# 2. MD5 hash of participant's IP address.
# 3. Controller name.
# 4. Item number.
# 5. Element number.
# 6. Type.
# 7. Group.
# 8. Field name.
# 9. Field value.
1557172765,f08d0c694fb8a6bc71f99d20c383e5f2,Form,8,0,comprehension,NULL,q1,Alex
1557172765,f08d0c694fb8a6bc71f99d20c383e5f2,Form,8,0,comprehension,NULL,q2,no
1557172765,f08d0c694fb8a6bc71f99d20c383e5f2,Form,8,0,comprehension,NULL,_REACTION_TIME_,6099
1557172765,f08d0c694fb8a6bc71f99d20c383e5f2,Form,9,0,outro,NULL,nativeq,yes
1557172765,f08d0c694fb8a6bc71f99d20c383e5f2,Form,9,0,outro,NULL,_REACTION_TIME_,16570
#
# Results on Monday May 06 2019 19:59:41 UTC.
# USER AGENT: Mozilla/5.0 (Windows NT 6.1; Win64; x64) AppleWebKit/537.36 (KHTML, like Gecko) Chrome/74.0.3729.131 Safari/537.36
# Design number was non-random = 30
#
# The lines below this comment are in groups of 2.
# The formats of the lines in each of these groups are as follows:
#
# Line 1:
#     Col. 1: Time results were received.
#     Col. 2: MD5 hash of participant's IP address.
#     Col. 3: Controller name.
#     Col. 4: Item number.
#     Col. 5: Element number.
#     Col. 6: Type.
#     Col. 7: Group.
#     Col. 8: Field name.
#     Col. 9: Field value.
# Line 2:
#     Col. 1: Time results were received.
#     Col. 2: MD5 hash of participant's IP address.
#     Col. 3: Controller name.
#     Col. 4: Item number.
#     Col. 5: Element number.
#     Col. 6: Type.
#     Col. 7: Group.
#     Col. 8: Question (NULL if none).
#     Col. 9: Answer.
#     Col. 10: Whether or not answer was correct (NULL if N/A).
#     Col. 11: Time taken to answer.
1557172781,6a0d309972aa6560ce58dde03573e136,Form,1,0,intro,NULL,_REACTION_TIME_,4760
1557172781,6a0d309972aa6560ce58dde03573e136,Question,2,0,prior-15,1,<p> Alex is in a restaurant. The menu includes a sandwich which costs $15%2C and a soup which costs $10%2C as well pizza and other things. </p> <p> There is a special today. If you order both the sandwich and soup%2C you get a discount. Instead of paying 25 Dollars%2C you pay only 15 Dollars. </p> <p> Alex is currently having a sandwich. <b> How likely is it%2C in your opinion%2C that she also ordered soup? </b> </p>,1,NULL,23765
# Columns below this comment are as follows:
# 1. Time results were received.
# 2. MD5 hash of participant's IP address.
# 3. Controller name.
# 4. Item number.
# 5. Element number.
# 6. Type.
# 7. Group.
# 8. Field name.
# 9. Field value.
1557172781,6a0d309972aa6560ce58dde03573e136,Form,8,0,comprehension,NULL,q1,Alex
1557172781,6a0d309972aa6560ce58dde03573e136,Form,8,0,comprehension,NULL,q2,no
1557172781,6a0d309972aa6560ce58dde03573e136,Form,8,0,comprehension,NULL,_REACTION_TIME_,7214
1557172781,6a0d309972aa6560ce58dde03573e136,Form,9,0,outro,NULL,nativeq,yes
1557172781,6a0d309972aa6560ce58dde03573e136,Form,9,0,outro,NULL,_REACTION_TIME_,13144
#
# Results on Monday May 06 2019 19:59:45 UTC.
# USER AGENT: Mozilla/5.0 (Windows NT 6.1; Win64; x64; rv:66.0) Gecko/20100101 Firefox/66.0
# Design number was non-random = 33
#
# The lines below this comment are in groups of 2.
# The formats of the lines in each of these groups are as follows:
#
# Line 1:
#     Col. 1: Time results were received.
#     Col. 2: MD5 hash of participant's IP address.
#     Col. 3: Controller name.
#     Col. 4: Item number.
#     Col. 5: Element number.
#     Col. 6: Type.
#     Col. 7: Group.
#     Col. 8: Field name.
#     Col. 9: Field value.
# Line 2:
#     Col. 1: Time results were received.
#     Col. 2: MD5 hash of participant's IP address.
#     Col. 3: Controller name.
#     Col. 4: Item number.
#     Col. 5: Element number.
#     Col. 6: Type.
#     Col. 7: Group.
#     Col. 8: Question (NULL if none).
#     Col. 9: Answer.
#     Col. 10: Whether or not answer was correct (NULL if N/A).
#     Col. 11: Time taken to answer.
1557172786,099aadd940ccf222c8bd0aca51036315,Form,1,0,intro,NULL,_REACTION_TIME_,10435
1557172786,099aadd940ccf222c8bd0aca51036315,Question,5,0,prior-20,1,<p> Alex is in a restaurant. The menu includes a sandwich which costs $15%2C and a soup which costs $10%2C as well pizza and other things. </p> <p> There is a special today. If you order both the sandwich and soup%2C you get a discount. Instead of paying 25 Dollars%2C you pay only 20 Dollars. </p> <p> Alex is currently having a sandwich. <b> How likely is it%2C in your opinion%2C that she also ordered soup? </b> </p>,10,NULL,15310
# Columns below this comment are as follows:
# 1. Time results were received.
# 2. MD5 hash of participant's IP address.
# 3. Controller name.
# 4. Item number.
# 5. Element number.
# 6. Type.
# 7. Group.
# 8. Field name.
# 9. Field value.
1557172786,099aadd940ccf222c8bd0aca51036315,Form,8,0,comprehension,NULL,q1,Alex
1557172786,099aadd940ccf222c8bd0aca51036315,Form,8,0,comprehension,NULL,q2,no
1557172786,099aadd940ccf222c8bd0aca51036315,Form,8,0,comprehension,NULL,_REACTION_TIME_,5946
1557172786,099aadd940ccf222c8bd0aca51036315,Form,9,0,outro,NULL,nativeq,yes
1557172786,099aadd940ccf222c8bd0aca51036315,Form,9,0,outro,NULL,_REACTION_TIME_,7311
#
# Results on Monday May 06 2019 20:00:17 UTC.
# USER AGENT: Mozilla/5.0 (Windows NT 10.0; Win64; x64) AppleWebKit/537.36 (KHTML, like Gecko) Chrome/64.0.3282.140 Safari/537.36 Edge/17.17134
# Design number was non-random = 34
#
# The lines below this comment are in groups of 2.
# The formats of the lines in each of these groups are as follows:
#
# Line 1:
#     Col. 1: Time results were received.
#     Col. 2: MD5 hash of participant's IP address.
#     Col. 3: Controller name.
#     Col. 4: Item number.
#     Col. 5: Element number.
#     Col. 6: Type.
#     Col. 7: Group.
#     Col. 8: Field name.
#     Col. 9: Field value.
# Line 2:
#     Col. 1: Time results were received.
#     Col. 2: MD5 hash of participant's IP address.
#     Col. 3: Controller name.
#     Col. 4: Item number.
#     Col. 5: Element number.
#     Col. 6: Type.
#     Col. 7: Group.
#     Col. 8: Question (NULL if none).
#     Col. 9: Answer.
#     Col. 10: Whether or not answer was correct (NULL if N/A).
#     Col. 11: Time taken to answer.
1557172818,fa2f2344cce12f4fc82c0718943196ee,Form,1,0,intro,NULL,_REACTION_TIME_,10348
1557172818,fa2f2344cce12f4fc82c0718943196ee,Question,6,0,prior-22,1,<p> Alex is in a restaurant. The menu includes a sandwich which costs $15%2C and a soup which costs $10%2C as well pizza and other things. </p> <p> There is a special today. If you order both the sandwich and soup%2C you get a discount. Instead of paying 25 Dollars%2C you pay only 22 Dollars. </p> <p> Alex is currently having a sandwich. <b> How likely is it%2C in your opinion%2C that she also ordered soup? </b> </p>,4,NULL,21793
# Columns below this comment are as follows:
# 1. Time results were received.
# 2. MD5 hash of participant's IP address.
# 3. Controller name.
# 4. Item number.
# 5. Element number.
# 6. Type.
# 7. Group.
# 8. Field name.
# 9. Field value.
1557172818,fa2f2344cce12f4fc82c0718943196ee,Form,8,0,comprehension,NULL,q1,Alex
1557172818,fa2f2344cce12f4fc82c0718943196ee,Form,8,0,comprehension,NULL,q2,no
1557172818,fa2f2344cce12f4fc82c0718943196ee,Form,8,0,comprehension,NULL,_REACTION_TIME_,7262
1557172818,fa2f2344cce12f4fc82c0718943196ee,Form,9,0,outro,NULL,nativeq,yes
1557172818,fa2f2344cce12f4fc82c0718943196ee,Form,9,0,outro,NULL,_REACTION_TIME_,15919
#
# Results on Monday May 06 2019 20:00:49 UTC.
# USER AGENT: Mozilla/5.0 (Windows NT 10.0; Win64; x64) AppleWebKit/537.36 (KHTML, like Gecko) Chrome/73.0.3683.103 Safari/537.36
# Design number was non-random = 38
#
# The lines below this comment are in groups of 2.
# The formats of the lines in each of these groups are as follows:
#
# Line 1:
#     Col. 1: Time results were received.
#     Col. 2: MD5 hash of participant's IP address.
#     Col. 3: Controller name.
#     Col. 4: Item number.
#     Col. 5: Element number.
#     Col. 6: Type.
#     Col. 7: Group.
#     Col. 8: Field name.
#     Col. 9: Field value.
# Line 2:
#     Col. 1: Time results were received.
#     Col. 2: MD5 hash of participant's IP address.
#     Col. 3: Controller name.
#     Col. 4: Item number.
#     Col. 5: Element number.
#     Col. 6: Type.
#     Col. 7: Group.
#     Col. 8: Question (NULL if none).
#     Col. 9: Answer.
#     Col. 10: Whether or not answer was correct (NULL if N/A).
#     Col. 11: Time taken to answer.
1557172849,dc3bb6e88bbef2d3b00409a19698f1a6,Form,1,0,intro,NULL,_REACTION_TIME_,1489
1557172849,dc3bb6e88bbef2d3b00409a19698f1a6,Question,4,0,prior-18,1,<p> Alex is in a restaurant. The menu includes a sandwich which costs $15%2C and a soup which costs $10%2C as well pizza and other things. </p> <p> There is a special today. If you order both the sandwich and soup%2C you get a discount. Instead of paying 25 Dollars%2C you pay only 18 Dollars. </p> <p> Alex is currently having a sandwich. <b> How likely is it%2C in your opinion%2C that she also ordered soup? </b> </p>,9,NULL,9308
# Columns below this comment are as follows:
# 1. Time results were received.
# 2. MD5 hash of participant's IP address.
# 3. Controller name.
# 4. Item number.
# 5. Element number.
# 6. Type.
# 7. Group.
# 8. Field name.
# 9. Field value.
1557172849,dc3bb6e88bbef2d3b00409a19698f1a6,Form,8,0,comprehension,NULL,q1,Alex
1557172849,dc3bb6e88bbef2d3b00409a19698f1a6,Form,8,0,comprehension,NULL,q2,no
1557172849,dc3bb6e88bbef2d3b00409a19698f1a6,Form,8,0,comprehension,NULL,_REACTION_TIME_,4014
1557172849,dc3bb6e88bbef2d3b00409a19698f1a6,Form,9,0,outro,NULL,nativeq,yes
1557172849,dc3bb6e88bbef2d3b00409a19698f1a6,Form,9,0,outro,NULL,_REACTION_TIME_,3651
#
# Results on Monday May 06 2019 20:00:58 UTC.
# USER AGENT: Mozilla/5.0 (Macintosh; Intel Mac OS X 10_14_0) AppleWebKit/537.36 (KHTML, like Gecko) Chrome/73.0.3683.103 Safari/537.36
# Design number was non-random = 38
#
# The lines below this comment are in groups of 2.
# The formats of the lines in each of these groups are as follows:
#
# Line 1:
#     Col. 1: Time results were received.
#     Col. 2: MD5 hash of participant's IP address.
#     Col. 3: Controller name.
#     Col. 4: Item number.
#     Col. 5: Element number.
#     Col. 6: Type.
#     Col. 7: Group.
#     Col. 8: Field name.
#     Col. 9: Field value.
# Line 2:
#     Col. 1: Time results were received.
#     Col. 2: MD5 hash of participant's IP address.
#     Col. 3: Controller name.
#     Col. 4: Item number.
#     Col. 5: Element number.
#     Col. 6: Type.
#     Col. 7: Group.
#     Col. 8: Question (NULL if none).
#     Col. 9: Answer.
#     Col. 10: Whether or not answer was correct (NULL if N/A).
#     Col. 11: Time taken to answer.
1557172858,9cbe7b4ae2bd10905f8bd44a5b80b09d,Form,1,0,intro,NULL,_REACTION_TIME_,2318
1557172858,9cbe7b4ae2bd10905f8bd44a5b80b09d,Question,4,0,prior-18,1,<p> Alex is in a restaurant. The menu includes a sandwich which costs $15%2C and a soup which costs $10%2C as well pizza and other things. </p> <p> There is a special today. If you order both the sandwich and soup%2C you get a discount. Instead of paying 25 Dollars%2C you pay only 18 Dollars. </p> <p> Alex is currently having a sandwich. <b> How likely is it%2C in your opinion%2C that she also ordered soup? </b> </p>,9,NULL,18737
# Columns below this comment are as follows:
# 1. Time results were received.
# 2. MD5 hash of participant's IP address.
# 3. Controller name.
# 4. Item number.
# 5. Element number.
# 6. Type.
# 7. Group.
# 8. Field name.
# 9. Field value.
1557172858,9cbe7b4ae2bd10905f8bd44a5b80b09d,Form,8,0,comprehension,NULL,q1,Alex
1557172858,9cbe7b4ae2bd10905f8bd44a5b80b09d,Form,8,0,comprehension,NULL,q2,no
1557172858,9cbe7b4ae2bd10905f8bd44a5b80b09d,Form,8,0,comprehension,NULL,_REACTION_TIME_,6344
1557172858,9cbe7b4ae2bd10905f8bd44a5b80b09d,Form,9,0,outro,NULL,nativeq,yes
1557172858,9cbe7b4ae2bd10905f8bd44a5b80b09d,Form,9,0,outro,NULL,_REACTION_TIME_,4100
#
# Results on Monday May 06 2019 20:01:01 UTC.
# USER AGENT: Mozilla/5.0 (Windows NT 6.1; Win64; x64) AppleWebKit/537.36 (KHTML, like Gecko) Chrome/74.0.3729.131 Safari/537.36
# Design number was non-random = 37
#
# The lines below this comment are in groups of 2.
# The formats of the lines in each of these groups are as follows:
#
# Line 1:
#     Col. 1: Time results were received.
#     Col. 2: MD5 hash of participant's IP address.
#     Col. 3: Controller name.
#     Col. 4: Item number.
#     Col. 5: Element number.
#     Col. 6: Type.
#     Col. 7: Group.
#     Col. 8: Field name.
#     Col. 9: Field value.
# Line 2:
#     Col. 1: Time results were received.
#     Col. 2: MD5 hash of participant's IP address.
#     Col. 3: Controller name.
#     Col. 4: Item number.
#     Col. 5: Element number.
#     Col. 6: Type.
#     Col. 7: Group.
#     Col. 8: Question (NULL if none).
#     Col. 9: Answer.
#     Col. 10: Whether or not answer was correct (NULL if N/A).
#     Col. 11: Time taken to answer.
1557172862,bddc007603fb36765b3e68851789b27c,Form,1,0,intro,NULL,_REACTION_TIME_,25587
1557172862,bddc007603fb36765b3e68851789b27c,Question,3,0,prior-16,1,<p> Alex is in a restaurant. The menu includes a sandwich which costs $15%2C and a soup which costs $10%2C as well pizza and other things. </p> <p> There is a special today. If you order both the sandwich and soup%2C you get a discount. Instead of paying 25 Dollars%2C you pay only 16 Dollars. </p> <p> Alex is currently having a sandwich. <b> How likely is it%2C in your opinion%2C that she also ordered soup? </b> </p>,8,NULL,15436
# Columns below this comment are as follows:
# 1. Time results were received.
# 2. MD5 hash of participant's IP address.
# 3. Controller name.
# 4. Item number.
# 5. Element number.
# 6. Type.
# 7. Group.
# 8. Field name.
# 9. Field value.
1557172862,bddc007603fb36765b3e68851789b27c,Form,8,0,comprehension,NULL,q1,Alex
1557172862,bddc007603fb36765b3e68851789b27c,Form,8,0,comprehension,NULL,q2,no
1557172862,bddc007603fb36765b3e68851789b27c,Form,8,0,comprehension,NULL,_REACTION_TIME_,8701
1557172862,bddc007603fb36765b3e68851789b27c,Form,9,0,outro,NULL,nativeq,yes
1557172862,bddc007603fb36765b3e68851789b27c,Form,9,0,outro,NULL,_REACTION_TIME_,3920
#
# Results on Monday May 06 2019 20:01:05 UTC.
# USER AGENT: Mozilla/5.0 (Windows NT 6.1; Win64; x64) AppleWebKit/537.36 (KHTML, like Gecko) Chrome/73.0.3683.103 Safari/537.36
# Design number was non-random = 38
#
# The lines below this comment are in groups of 2.
# The formats of the lines in each of these groups are as follows:
#
# Line 1:
#     Col. 1: Time results were received.
#     Col. 2: MD5 hash of participant's IP address.
#     Col. 3: Controller name.
#     Col. 4: Item number.
#     Col. 5: Element number.
#     Col. 6: Type.
#     Col. 7: Group.
#     Col. 8: Field name.
#     Col. 9: Field value.
# Line 2:
#     Col. 1: Time results were received.
#     Col. 2: MD5 hash of participant's IP address.
#     Col. 3: Controller name.
#     Col. 4: Item number.
#     Col. 5: Element number.
#     Col. 6: Type.
#     Col. 7: Group.
#     Col. 8: Question (NULL if none).
#     Col. 9: Answer.
#     Col. 10: Whether or not answer was correct (NULL if N/A).
#     Col. 11: Time taken to answer.
1557172866,1f2506af5bdf4bead519fcb1f76a7434,Form,1,0,intro,NULL,_REACTION_TIME_,3222
1557172866,1f2506af5bdf4bead519fcb1f76a7434,Question,4,0,prior-18,1,<p> Alex is in a restaurant. The menu includes a sandwich which costs $15%2C and a soup which costs $10%2C as well pizza and other things. </p> <p> There is a special today. If you order both the sandwich and soup%2C you get a discount. Instead of paying 25 Dollars%2C you pay only 18 Dollars. </p> <p> Alex is currently having a sandwich. <b> How likely is it%2C in your opinion%2C that she also ordered soup? </b> </p>,8,NULL,15831
# Columns below this comment are as follows:
# 1. Time results were received.
# 2. MD5 hash of participant's IP address.
# 3. Controller name.
# 4. Item number.
# 5. Element number.
# 6. Type.
# 7. Group.
# 8. Field name.
# 9. Field value.
1557172866,1f2506af5bdf4bead519fcb1f76a7434,Form,8,0,comprehension,NULL,q1,Alex
1557172866,1f2506af5bdf4bead519fcb1f76a7434,Form,8,0,comprehension,NULL,q2,no
1557172866,1f2506af5bdf4bead519fcb1f76a7434,Form,8,0,comprehension,NULL,_REACTION_TIME_,6420
1557172866,1f2506af5bdf4bead519fcb1f76a7434,Form,9,0,outro,NULL,nativeq,yes
1557172866,1f2506af5bdf4bead519fcb1f76a7434,Form,9,0,outro,NULL,_REACTION_TIME_,17195
#
# Results on Monday May 06 2019 20:02:00 UTC.
# USER AGENT: Mozilla/5.0 (Windows NT 10.0; Win64; x64) AppleWebKit/537.36 (KHTML, like Gecko) Chrome/64.0.3282.140 Safari/537.36 Edge/18.17763
# Design number was non-random = 39
#
# The lines below this comment are in groups of 2.
# The formats of the lines in each of these groups are as follows:
#
# Line 1:
#     Col. 1: Time results were received.
#     Col. 2: MD5 hash of participant's IP address.
#     Col. 3: Controller name.
#     Col. 4: Item number.
#     Col. 5: Element number.
#     Col. 6: Type.
#     Col. 7: Group.
#     Col. 8: Field name.
#     Col. 9: Field value.
# Line 2:
#     Col. 1: Time results were received.
#     Col. 2: MD5 hash of participant's IP address.
#     Col. 3: Controller name.
#     Col. 4: Item number.
#     Col. 5: Element number.
#     Col. 6: Type.
#     Col. 7: Group.
#     Col. 8: Question (NULL if none).
#     Col. 9: Answer.
#     Col. 10: Whether or not answer was correct (NULL if N/A).
#     Col. 11: Time taken to answer.
1557172920,1a60f2393a5bb29eca291f5f12c99186,Form,1,0,intro,NULL,_REACTION_TIME_,9592
1557172920,1a60f2393a5bb29eca291f5f12c99186,Question,5,0,prior-20,1,<p> Alex is in a restaurant. The menu includes a sandwich which costs $15%2C and a soup which costs $10%2C as well pizza and other things. </p> <p> There is a special today. If you order both the sandwich and soup%2C you get a discount. Instead of paying 25 Dollars%2C you pay only 20 Dollars. </p> <p> Alex is currently having a sandwich. <b> How likely is it%2C in your opinion%2C that she also ordered soup? </b> </p>,10,NULL,36317
# Columns below this comment are as follows:
# 1. Time results were received.
# 2. MD5 hash of participant's IP address.
# 3. Controller name.
# 4. Item number.
# 5. Element number.
# 6. Type.
# 7. Group.
# 8. Field name.
# 9. Field value.
1557172920,1a60f2393a5bb29eca291f5f12c99186,Form,8,0,comprehension,NULL,q1,Alex
1557172920,1a60f2393a5bb29eca291f5f12c99186,Form,8,0,comprehension,NULL,q2,no
1557172920,1a60f2393a5bb29eca291f5f12c99186,Form,8,0,comprehension,NULL,_REACTION_TIME_,7735
1557172920,1a60f2393a5bb29eca291f5f12c99186,Form,9,0,outro,NULL,nativeq,yes
1557172920,1a60f2393a5bb29eca291f5f12c99186,Form,9,0,outro,NULL,_REACTION_TIME_,8293
#
# Results on Monday May 06 2019 20:03:41 UTC.
# USER AGENT: Mozilla/5.0 (Windows NT 10.0; Win64; x64) AppleWebKit/537.36 (KHTML, like Gecko) Chrome/73.0.3683.103 Safari/537.36
# Design number was non-random = 43
#
# The lines below this comment are in groups of 2.
# The formats of the lines in each of these groups are as follows:
#
# Line 1:
#     Col. 1: Time results were received.
#     Col. 2: MD5 hash of participant's IP address.
#     Col. 3: Controller name.
#     Col. 4: Item number.
#     Col. 5: Element number.
#     Col. 6: Type.
#     Col. 7: Group.
#     Col. 8: Field name.
#     Col. 9: Field value.
# Line 2:
#     Col. 1: Time results were received.
#     Col. 2: MD5 hash of participant's IP address.
#     Col. 3: Controller name.
#     Col. 4: Item number.
#     Col. 5: Element number.
#     Col. 6: Type.
#     Col. 7: Group.
#     Col. 8: Question (NULL if none).
#     Col. 9: Answer.
#     Col. 10: Whether or not answer was correct (NULL if N/A).
#     Col. 11: Time taken to answer.
1557173021,efa1dbdb3892a4857528a3b6cd66b354,Form,1,0,intro,NULL,_REACTION_TIME_,6384
1557173021,efa1dbdb3892a4857528a3b6cd66b354,Question,3,0,prior-16,1,<p> Alex is in a restaurant. The menu includes a sandwich which costs $15%2C and a soup which costs $10%2C as well pizza and other things. </p> <p> There is a special today. If you order both the sandwich and soup%2C you get a discount. Instead of paying 25 Dollars%2C you pay only 16 Dollars. </p> <p> Alex is currently having a sandwich. <b> How likely is it%2C in your opinion%2C that she also ordered soup? </b> </p>,10,NULL,20427
# Columns below this comment are as follows:
# 1. Time results were received.
# 2. MD5 hash of participant's IP address.
# 3. Controller name.
# 4. Item number.
# 5. Element number.
# 6. Type.
# 7. Group.
# 8. Field name.
# 9. Field value.
1557173021,efa1dbdb3892a4857528a3b6cd66b354,Form,8,0,comprehension,NULL,q1,Alex
1557173021,efa1dbdb3892a4857528a3b6cd66b354,Form,8,0,comprehension,NULL,q2,no
1557173021,efa1dbdb3892a4857528a3b6cd66b354,Form,8,0,comprehension,NULL,_REACTION_TIME_,15266
1557173021,efa1dbdb3892a4857528a3b6cd66b354,Form,9,0,outro,NULL,nativeq,yes
1557173021,efa1dbdb3892a4857528a3b6cd66b354,Form,9,0,outro,NULL,_REACTION_TIME_,13299
#
# Results on Monday May 06 2019 20:04:11 UTC.
# USER AGENT: Mozilla/5.0 (Windows NT 10.0; Win64; x64) AppleWebKit/537.36 (KHTML, like Gecko) Chrome/73.0.3683.103 Safari/537.36
# Design number was non-random = 43
#
# The lines below this comment are in groups of 2.
# The formats of the lines in each of these groups are as follows:
#
# Line 1:
#     Col. 1: Time results were received.
#     Col. 2: MD5 hash of participant's IP address.
#     Col. 3: Controller name.
#     Col. 4: Item number.
#     Col. 5: Element number.
#     Col. 6: Type.
#     Col. 7: Group.
#     Col. 8: Field name.
#     Col. 9: Field value.
# Line 2:
#     Col. 1: Time results were received.
#     Col. 2: MD5 hash of participant's IP address.
#     Col. 3: Controller name.
#     Col. 4: Item number.
#     Col. 5: Element number.
#     Col. 6: Type.
#     Col. 7: Group.
#     Col. 8: Question (NULL if none).
#     Col. 9: Answer.
#     Col. 10: Whether or not answer was correct (NULL if N/A).
#     Col. 11: Time taken to answer.
1557173051,bb35e67796bd2dd0b1797bebe7ab71a4,Form,1,0,intro,NULL,_REACTION_TIME_,7848
1557173051,bb35e67796bd2dd0b1797bebe7ab71a4,Question,3,0,prior-16,1,<p> Alex is in a restaurant. The menu includes a sandwich which costs $15%2C and a soup which costs $10%2C as well pizza and other things. </p> <p> There is a special today. If you order both the sandwich and soup%2C you get a discount. Instead of paying 25 Dollars%2C you pay only 16 Dollars. </p> <p> Alex is currently having a sandwich. <b> How likely is it%2C in your opinion%2C that she also ordered soup? </b> </p>,9,NULL,13808
# Columns below this comment are as follows:
# 1. Time results were received.
# 2. MD5 hash of participant's IP address.
# 3. Controller name.
# 4. Item number.
# 5. Element number.
# 6. Type.
# 7. Group.
# 8. Field name.
# 9. Field value.
1557173051,bb35e67796bd2dd0b1797bebe7ab71a4,Form,8,0,comprehension,NULL,q1,Alex
1557173051,bb35e67796bd2dd0b1797bebe7ab71a4,Form,8,0,comprehension,NULL,q2,no
1557173051,bb35e67796bd2dd0b1797bebe7ab71a4,Form,8,0,comprehension,NULL,_REACTION_TIME_,4812
1557173051,bb35e67796bd2dd0b1797bebe7ab71a4,Form,9,0,outro,NULL,nativeq,yes
1557173051,bb35e67796bd2dd0b1797bebe7ab71a4,Form,9,0,outro,NULL,_REACTION_TIME_,6484
#
# Results on Monday May 06 2019 20:04:17 UTC.
# USER AGENT: Mozilla/5.0 (Macintosh; Intel Mac OS X 10_12_6) AppleWebKit/537.36 (KHTML, like Gecko) Chrome/73.0.3683.103 Safari/537.36
# Design number was non-random = 44
#
# The lines below this comment are in groups of 2.
# The formats of the lines in each of these groups are as follows:
#
# Line 1:
#     Col. 1: Time results were received.
#     Col. 2: MD5 hash of participant's IP address.
#     Col. 3: Controller name.
#     Col. 4: Item number.
#     Col. 5: Element number.
#     Col. 6: Type.
#     Col. 7: Group.
#     Col. 8: Field name.
#     Col. 9: Field value.
# Line 2:
#     Col. 1: Time results were received.
#     Col. 2: MD5 hash of participant's IP address.
#     Col. 3: Controller name.
#     Col. 4: Item number.
#     Col. 5: Element number.
#     Col. 6: Type.
#     Col. 7: Group.
#     Col. 8: Question (NULL if none).
#     Col. 9: Answer.
#     Col. 10: Whether or not answer was correct (NULL if N/A).
#     Col. 11: Time taken to answer.
1557173058,3e2b4b10c32be552541a55965e8f3b72,Form,1,0,intro,NULL,_REACTION_TIME_,1408
1557173058,3e2b4b10c32be552541a55965e8f3b72,Question,4,0,prior-18,1,<p> Alex is in a restaurant. The menu includes a sandwich which costs $15%2C and a soup which costs $10%2C as well pizza and other things. </p> <p> There is a special today. If you order both the sandwich and soup%2C you get a discount. Instead of paying 25 Dollars%2C you pay only 18 Dollars. </p> <p> Alex is currently having a sandwich. <b> How likely is it%2C in your opinion%2C that she also ordered soup? </b> </p>,8,NULL,10255
# Columns below this comment are as follows:
# 1. Time results were received.
# 2. MD5 hash of participant's IP address.
# 3. Controller name.
# 4. Item number.
# 5. Element number.
# 6. Type.
# 7. Group.
# 8. Field name.
# 9. Field value.
1557173058,3e2b4b10c32be552541a55965e8f3b72,Form,8,0,comprehension,NULL,q1,Alex
1557173058,3e2b4b10c32be552541a55965e8f3b72,Form,8,0,comprehension,NULL,q2,no
1557173058,3e2b4b10c32be552541a55965e8f3b72,Form,8,0,comprehension,NULL,_REACTION_TIME_,5000
1557173058,3e2b4b10c32be552541a55965e8f3b72,Form,9,0,outro,NULL,nativeq,yes
1557173058,3e2b4b10c32be552541a55965e8f3b72,Form,9,0,outro,NULL,_REACTION_TIME_,7682
#
# Results on Monday May 06 2019 20:04:36 UTC.
# USER AGENT: Mozilla/5.0 (Windows NT 10.0; Win64; x64) AppleWebKit/537.36 (KHTML, like Gecko) Chrome/73.0.3683.103 Safari/537.36
# Design number was non-random = 44
#
# The lines below this comment are in groups of 2.
# The formats of the lines in each of these groups are as follows:
#
# Line 1:
#     Col. 1: Time results were received.
#     Col. 2: MD5 hash of participant's IP address.
#     Col. 3: Controller name.
#     Col. 4: Item number.
#     Col. 5: Element number.
#     Col. 6: Type.
#     Col. 7: Group.
#     Col. 8: Field name.
#     Col. 9: Field value.
# Line 2:
#     Col. 1: Time results were received.
#     Col. 2: MD5 hash of participant's IP address.
#     Col. 3: Controller name.
#     Col. 4: Item number.
#     Col. 5: Element number.
#     Col. 6: Type.
#     Col. 7: Group.
#     Col. 8: Question (NULL if none).
#     Col. 9: Answer.
#     Col. 10: Whether or not answer was correct (NULL if N/A).
#     Col. 11: Time taken to answer.
1557173076,4c6a38082c726429335a6509b8c8b3f8,Form,1,0,intro,NULL,_REACTION_TIME_,4880
1557173076,4c6a38082c726429335a6509b8c8b3f8,Question,4,0,prior-18,1,<p> Alex is in a restaurant. The menu includes a sandwich which costs $15%2C and a soup which costs $10%2C as well pizza and other things. </p> <p> There is a special today. If you order both the sandwich and soup%2C you get a discount. Instead of paying 25 Dollars%2C you pay only 18 Dollars. </p> <p> Alex is currently having a sandwich. <b> How likely is it%2C in your opinion%2C that she also ordered soup? </b> </p>,3,NULL,11013
# Columns below this comment are as follows:
# 1. Time results were received.
# 2. MD5 hash of participant's IP address.
# 3. Controller name.
# 4. Item number.
# 5. Element number.
# 6. Type.
# 7. Group.
# 8. Field name.
# 9. Field value.
1557173076,4c6a38082c726429335a6509b8c8b3f8,Form,8,0,comprehension,NULL,q1,Alex
1557173076,4c6a38082c726429335a6509b8c8b3f8,Form,8,0,comprehension,NULL,q2,no
1557173076,4c6a38082c726429335a6509b8c8b3f8,Form,8,0,comprehension,NULL,_REACTION_TIME_,5090
1557173076,4c6a38082c726429335a6509b8c8b3f8,Form,9,0,outro,NULL,nativeq,yes
1557173076,4c6a38082c726429335a6509b8c8b3f8,Form,9,0,outro,NULL,_REACTION_TIME_,12916
#
# Results on Monday May 06 2019 20:05:11 UTC.
# USER AGENT: Mozilla/5.0 (iPhone; CPU iPhone OS 12_2 like Mac OS X) AppleWebKit/605.1.15 (KHTML, like Gecko) CriOS/73.0.3683.68 Mobile/15E148 Safari/605.1
# Design number was non-random = 47
#
# The lines below this comment are in groups of 2.
# The formats of the lines in each of these groups are as follows:
#
# Line 1:
#     Col. 1: Time results were received.
#     Col. 2: MD5 hash of participant's IP address.
#     Col. 3: Controller name.
#     Col. 4: Item number.
#     Col. 5: Element number.
#     Col. 6: Type.
#     Col. 7: Group.
#     Col. 8: Field name.
#     Col. 9: Field value.
# Line 2:
#     Col. 1: Time results were received.
#     Col. 2: MD5 hash of participant's IP address.
#     Col. 3: Controller name.
#     Col. 4: Item number.
#     Col. 5: Element number.
#     Col. 6: Type.
#     Col. 7: Group.
#     Col. 8: Question (NULL if none).
#     Col. 9: Answer.
#     Col. 10: Whether or not answer was correct (NULL if N/A).
#     Col. 11: Time taken to answer.
1557173112,5e84cbe3f4db435f818a18c9b925efaa,Form,1,0,intro,NULL,_REACTION_TIME_,1762
1557173112,5e84cbe3f4db435f818a18c9b925efaa,Question,7,0,prior-24,1,<p> Alex is in a restaurant.  The menu includes a sandwich which costs $15%2C and a soup which costs $10%2C as well pizza and other things. </p> <p> There is a special today. If you order both the sandwich and soup%2C you get a discount. Instead of paying 25 Dollars%2C you pay only 24 Dollars. </p> <p> Alex is currently having a sandwich. <b> How likely is it%2C in your opinion%2C that she also ordered soup? </b> </p>,7,NULL,14235
# Columns below this comment are as follows:
# 1. Time results were received.
# 2. MD5 hash of participant's IP address.
# 3. Controller name.
# 4. Item number.
# 5. Element number.
# 6. Type.
# 7. Group.
# 8. Field name.
# 9. Field value.
1557173112,5e84cbe3f4db435f818a18c9b925efaa,Form,8,0,comprehension,NULL,q1,Sam
1557173112,5e84cbe3f4db435f818a18c9b925efaa,Form,8,0,comprehension,NULL,q2,no
1557173112,5e84cbe3f4db435f818a18c9b925efaa,Form,8,0,comprehension,NULL,_REACTION_TIME_,8751
1557173112,5e84cbe3f4db435f818a18c9b925efaa,Form,9,0,outro,NULL,nativeq,yes
1557173112,5e84cbe3f4db435f818a18c9b925efaa,Form,9,0,outro,NULL,_REACTION_TIME_,9559
#
# Results on Monday May 06 2019 20:06:21 UTC.
# USER AGENT: Mozilla/5.0 (Windows NT 10.0; Win64; x64) AppleWebKit/537.36 (KHTML, like Gecko) Chrome/73.0.3683.103 Safari/537.36
# Design number was non-random = 48
#
# The lines below this comment are in groups of 2.
# The formats of the lines in each of these groups are as follows:
#
# Line 1:
#     Col. 1: Time results were received.
#     Col. 2: MD5 hash of participant's IP address.
#     Col. 3: Controller name.
#     Col. 4: Item number.
#     Col. 5: Element number.
#     Col. 6: Type.
#     Col. 7: Group.
#     Col. 8: Field name.
#     Col. 9: Field value.
# Line 2:
#     Col. 1: Time results were received.
#     Col. 2: MD5 hash of participant's IP address.
#     Col. 3: Controller name.
#     Col. 4: Item number.
#     Col. 5: Element number.
#     Col. 6: Type.
#     Col. 7: Group.
#     Col. 8: Question (NULL if none).
#     Col. 9: Answer.
#     Col. 10: Whether or not answer was correct (NULL if N/A).
#     Col. 11: Time taken to answer.
1557173181,dc65fb4891651d5a8e5d5d2f41910535,Form,1,0,intro,NULL,_REACTION_TIME_,8228
1557173181,dc65fb4891651d5a8e5d5d2f41910535,Question,2,0,prior-15,1,<p> Alex is in a restaurant. The menu includes a sandwich which costs $15%2C and a soup which costs $10%2C as well pizza and other things. </p> <p> There is a special today. If you order both the sandwich and soup%2C you get a discount. Instead of paying 25 Dollars%2C you pay only 15 Dollars. </p> <p> Alex is currently having a sandwich. <b> How likely is it%2C in your opinion%2C that she also ordered soup? </b> </p>,9,NULL,13706
# Columns below this comment are as follows:
# 1. Time results were received.
# 2. MD5 hash of participant's IP address.
# 3. Controller name.
# 4. Item number.
# 5. Element number.
# 6. Type.
# 7. Group.
# 8. Field name.
# 9. Field value.
1557173181,dc65fb4891651d5a8e5d5d2f41910535,Form,8,0,comprehension,NULL,q1,Alex
1557173181,dc65fb4891651d5a8e5d5d2f41910535,Form,8,0,comprehension,NULL,q2,no
1557173181,dc65fb4891651d5a8e5d5d2f41910535,Form,8,0,comprehension,NULL,_REACTION_TIME_,5046
1557173181,dc65fb4891651d5a8e5d5d2f41910535,Form,9,0,outro,NULL,nativeq,yes
1557173181,dc65fb4891651d5a8e5d5d2f41910535,Form,9,0,outro,NULL,_REACTION_TIME_,15081
#
# Results on Monday May 06 2019 20:06:35 UTC.
# USER AGENT: Mozilla/5.0 (Windows NT 10.0; Win64; x64; rv:66.0) Gecko/20100101 Firefox/66.0
# Design number was non-random = 48
#
# The lines below this comment are in groups of 2.
# The formats of the lines in each of these groups are as follows:
#
# Line 1:
#     Col. 1: Time results were received.
#     Col. 2: MD5 hash of participant's IP address.
#     Col. 3: Controller name.
#     Col. 4: Item number.
#     Col. 5: Element number.
#     Col. 6: Type.
#     Col. 7: Group.
#     Col. 8: Field name.
#     Col. 9: Field value.
# Line 2:
#     Col. 1: Time results were received.
#     Col. 2: MD5 hash of participant's IP address.
#     Col. 3: Controller name.
#     Col. 4: Item number.
#     Col. 5: Element number.
#     Col. 6: Type.
#     Col. 7: Group.
#     Col. 8: Question (NULL if none).
#     Col. 9: Answer.
#     Col. 10: Whether or not answer was correct (NULL if N/A).
#     Col. 11: Time taken to answer.
1557173196,88079ce86b4626b38bd47dfac3c3686a,Form,1,0,intro,NULL,_REACTION_TIME_,5814
1557173196,88079ce86b4626b38bd47dfac3c3686a,Question,2,0,prior-15,1,<p> Alex is in a restaurant. The menu includes a sandwich which costs $15%2C and a soup which costs $10%2C as well pizza and other things. </p> <p> There is a special today. If you order both the sandwich and soup%2C you get a discount. Instead of paying 25 Dollars%2C you pay only 15 Dollars. </p> <p> Alex is currently having a sandwich. <b> How likely is it%2C in your opinion%2C that she also ordered soup? </b> </p>,10,NULL,17056
# Columns below this comment are as follows:
# 1. Time results were received.
# 2. MD5 hash of participant's IP address.
# 3. Controller name.
# 4. Item number.
# 5. Element number.
# 6. Type.
# 7. Group.
# 8. Field name.
# 9. Field value.
1557173196,88079ce86b4626b38bd47dfac3c3686a,Form,8,0,comprehension,NULL,q1,Alex
1557173196,88079ce86b4626b38bd47dfac3c3686a,Form,8,0,comprehension,NULL,q2,no
1557173196,88079ce86b4626b38bd47dfac3c3686a,Form,8,0,comprehension,NULL,_REACTION_TIME_,6727
1557173196,88079ce86b4626b38bd47dfac3c3686a,Form,9,0,outro,NULL,nativeq,yes
1557173196,88079ce86b4626b38bd47dfac3c3686a,Form,9,0,outro,NULL,_REACTION_TIME_,17203
#
# Results on Monday May 06 2019 20:06:43 UTC.
# USER AGENT: Mozilla/5.0 (Macintosh; Intel Mac OS X 10_13_6) AppleWebKit/537.36 (KHTML, like Gecko) Chrome/73.0.3683.103 Safari/537.36
# Design number was non-random = 48
#
# The lines below this comment are in groups of 2.
# The formats of the lines in each of these groups are as follows:
#
# Line 1:
#     Col. 1: Time results were received.
#     Col. 2: MD5 hash of participant's IP address.
#     Col. 3: Controller name.
#     Col. 4: Item number.
#     Col. 5: Element number.
#     Col. 6: Type.
#     Col. 7: Group.
#     Col. 8: Field name.
#     Col. 9: Field value.
# Line 2:
#     Col. 1: Time results were received.
#     Col. 2: MD5 hash of participant's IP address.
#     Col. 3: Controller name.
#     Col. 4: Item number.
#     Col. 5: Element number.
#     Col. 6: Type.
#     Col. 7: Group.
#     Col. 8: Question (NULL if none).
#     Col. 9: Answer.
#     Col. 10: Whether or not answer was correct (NULL if N/A).
#     Col. 11: Time taken to answer.
1557173203,5cf49713408e5e09c38e5a7ae4af5c81,Form,1,0,intro,NULL,_REACTION_TIME_,4796
1557173203,5cf49713408e5e09c38e5a7ae4af5c81,Question,2,0,prior-15,1,<p> Alex is in a restaurant. The menu includes a sandwich which costs $15%2C and a soup which costs $10%2C as well pizza and other things. </p> <p> There is a special today. If you order both the sandwich and soup%2C you get a discount. Instead of paying 25 Dollars%2C you pay only 15 Dollars. </p> <p> Alex is currently having a sandwich. <b> How likely is it%2C in your opinion%2C that she also ordered soup? </b> </p>,10,NULL,13092
# Columns below this comment are as follows:
# 1. Time results were received.
# 2. MD5 hash of participant's IP address.
# 3. Controller name.
# 4. Item number.
# 5. Element number.
# 6. Type.
# 7. Group.
# 8. Field name.
# 9. Field value.
1557173203,5cf49713408e5e09c38e5a7ae4af5c81,Form,8,0,comprehension,NULL,q1,Alex
1557173203,5cf49713408e5e09c38e5a7ae4af5c81,Form,8,0,comprehension,NULL,q2,no
1557173203,5cf49713408e5e09c38e5a7ae4af5c81,Form,8,0,comprehension,NULL,_REACTION_TIME_,7437
1557173203,5cf49713408e5e09c38e5a7ae4af5c81,Form,9,0,outro,NULL,nativeq,yes
1557173203,5cf49713408e5e09c38e5a7ae4af5c81,Form,9,0,outro,NULL,_REACTION_TIME_,12221
#
# Results on Monday May 06 2019 20:07:05 UTC.
# USER AGENT: Mozilla/5.0 (Windows NT 10.0; Win64; x64) AppleWebKit/537.36 (KHTML, like Gecko) Chrome/74.0.3729.131 Safari/537.36
# Design number was non-random = 49
#
# The lines below this comment are in groups of 2.
# The formats of the lines in each of these groups are as follows:
#
# Line 1:
#     Col. 1: Time results were received.
#     Col. 2: MD5 hash of participant's IP address.
#     Col. 3: Controller name.
#     Col. 4: Item number.
#     Col. 5: Element number.
#     Col. 6: Type.
#     Col. 7: Group.
#     Col. 8: Field name.
#     Col. 9: Field value.
# Line 2:
#     Col. 1: Time results were received.
#     Col. 2: MD5 hash of participant's IP address.
#     Col. 3: Controller name.
#     Col. 4: Item number.
#     Col. 5: Element number.
#     Col. 6: Type.
#     Col. 7: Group.
#     Col. 8: Question (NULL if none).
#     Col. 9: Answer.
#     Col. 10: Whether or not answer was correct (NULL if N/A).
#     Col. 11: Time taken to answer.
1557173225,fe6ca23daaaf50ae61ab233b29e8f435,Form,1,0,intro,NULL,_REACTION_TIME_,2549
1557173225,fe6ca23daaaf50ae61ab233b29e8f435,Question,3,0,prior-16,1,<p> Alex is in a restaurant. The menu includes a sandwich which costs $15%2C and a soup which costs $10%2C as well pizza and other things. </p> <p> There is a special today. If you order both the sandwich and soup%2C you get a discount. Instead of paying 25 Dollars%2C you pay only 16 Dollars. </p> <p> Alex is currently having a sandwich. <b> How likely is it%2C in your opinion%2C that she also ordered soup? </b> </p>,1,NULL,20307
# Columns below this comment are as follows:
# 1. Time results were received.
# 2. MD5 hash of participant's IP address.
# 3. Controller name.
# 4. Item number.
# 5. Element number.
# 6. Type.
# 7. Group.
# 8. Field name.
# 9. Field value.
1557173225,fe6ca23daaaf50ae61ab233b29e8f435,Form,8,0,comprehension,NULL,q1,Alex
1557173225,fe6ca23daaaf50ae61ab233b29e8f435,Form,8,0,comprehension,NULL,q2,no
1557173225,fe6ca23daaaf50ae61ab233b29e8f435,Form,8,0,comprehension,NULL,_REACTION_TIME_,5005
1557173225,fe6ca23daaaf50ae61ab233b29e8f435,Form,9,0,outro,NULL,nativeq,yes
1557173225,fe6ca23daaaf50ae61ab233b29e8f435,Form,9,0,outro,NULL,_REACTION_TIME_,4190
#
# Results on Monday May 06 2019 20:07:30 UTC.
# USER AGENT: Mozilla/5.0 (Windows NT 10.0; Win64; x64; rv:66.0) Gecko/20100101 Firefox/66.0
# Design number was non-random = 51
#
# The lines below this comment are in groups of 2.
# The formats of the lines in each of these groups are as follows:
#
# Line 1:
#     Col. 1: Time results were received.
#     Col. 2: MD5 hash of participant's IP address.
#     Col. 3: Controller name.
#     Col. 4: Item number.
#     Col. 5: Element number.
#     Col. 6: Type.
#     Col. 7: Group.
#     Col. 8: Field name.
#     Col. 9: Field value.
# Line 2:
#     Col. 1: Time results were received.
#     Col. 2: MD5 hash of participant's IP address.
#     Col. 3: Controller name.
#     Col. 4: Item number.
#     Col. 5: Element number.
#     Col. 6: Type.
#     Col. 7: Group.
#     Col. 8: Question (NULL if none).
#     Col. 9: Answer.
#     Col. 10: Whether or not answer was correct (NULL if N/A).
#     Col. 11: Time taken to answer.
1557173250,3e6849ddd9bc876ac253b998c39d5cb9,Form,1,0,intro,NULL,_REACTION_TIME_,4797
1557173250,3e6849ddd9bc876ac253b998c39d5cb9,Question,5,0,prior-20,1,<p> Alex is in a restaurant. The menu includes a sandwich which costs $15%2C and a soup which costs $10%2C as well pizza and other things. </p> <p> There is a special today. If you order both the sandwich and soup%2C you get a discount. Instead of paying 25 Dollars%2C you pay only 20 Dollars. </p> <p> Alex is currently having a sandwich. <b> How likely is it%2C in your opinion%2C that she also ordered soup? </b> </p>,7,NULL,14203
# Columns below this comment are as follows:
# 1. Time results were received.
# 2. MD5 hash of participant's IP address.
# 3. Controller name.
# 4. Item number.
# 5. Element number.
# 6. Type.
# 7. Group.
# 8. Field name.
# 9. Field value.
1557173250,3e6849ddd9bc876ac253b998c39d5cb9,Form,8,0,comprehension,NULL,q1,Alex
1557173250,3e6849ddd9bc876ac253b998c39d5cb9,Form,8,0,comprehension,NULL,q2,yes
1557173250,3e6849ddd9bc876ac253b998c39d5cb9,Form,8,0,comprehension,NULL,_REACTION_TIME_,7343
1557173250,3e6849ddd9bc876ac253b998c39d5cb9,Form,9,0,outro,NULL,nativeq,yes
1557173250,3e6849ddd9bc876ac253b998c39d5cb9,Form,9,0,outro,NULL,_REACTION_TIME_,8269
#
# Results on Monday May 06 2019 20:08:55 UTC.
# USER AGENT: Mozilla/5.0 (Windows NT 10.0; Win64; x64) AppleWebKit/537.36 (KHTML, like Gecko) Chrome/74.0.3729.131 Safari/537.36
# Design number was non-random = 53
#
# The lines below this comment are in groups of 2.
# The formats of the lines in each of these groups are as follows:
#
# Line 1:
#     Col. 1: Time results were received.
#     Col. 2: MD5 hash of participant's IP address.
#     Col. 3: Controller name.
#     Col. 4: Item number.
#     Col. 5: Element number.
#     Col. 6: Type.
#     Col. 7: Group.
#     Col. 8: Field name.
#     Col. 9: Field value.
# Line 2:
#     Col. 1: Time results were received.
#     Col. 2: MD5 hash of participant's IP address.
#     Col. 3: Controller name.
#     Col. 4: Item number.
#     Col. 5: Element number.
#     Col. 6: Type.
#     Col. 7: Group.
#     Col. 8: Question (NULL if none).
#     Col. 9: Answer.
#     Col. 10: Whether or not answer was correct (NULL if N/A).
#     Col. 11: Time taken to answer.
1557173336,e2a8d2b6f5a304dd26a3923a4e1ff6f0,Form,1,0,intro,NULL,_REACTION_TIME_,8575
1557173336,e2a8d2b6f5a304dd26a3923a4e1ff6f0,Question,7,0,prior-24,1,<p> Alex is in a restaurant.  The menu includes a sandwich which costs $15%2C and a soup which costs $10%2C as well pizza and other things. </p> <p> There is a special today. If you order both the sandwich and soup%2C you get a discount. Instead of paying 25 Dollars%2C you pay only 24 Dollars. </p> <p> Alex is currently having a sandwich. <b> How likely is it%2C in your opinion%2C that she also ordered soup? </b> </p>,2,NULL,24461
# Columns below this comment are as follows:
# 1. Time results were received.
# 2. MD5 hash of participant's IP address.
# 3. Controller name.
# 4. Item number.
# 5. Element number.
# 6. Type.
# 7. Group.
# 8. Field name.
# 9. Field value.
1557173336,e2a8d2b6f5a304dd26a3923a4e1ff6f0,Form,8,0,comprehension,NULL,q1,Alex
1557173336,e2a8d2b6f5a304dd26a3923a4e1ff6f0,Form,8,0,comprehension,NULL,q2,no
1557173336,e2a8d2b6f5a304dd26a3923a4e1ff6f0,Form,8,0,comprehension,NULL,_REACTION_TIME_,12349
1557173336,e2a8d2b6f5a304dd26a3923a4e1ff6f0,Form,9,0,outro,NULL,nativeq,yes
1557173336,e2a8d2b6f5a304dd26a3923a4e1ff6f0,Form,9,0,outro,NULL,_REACTION_TIME_,5102
#
# Results on Monday May 06 2019 20:09:14 UTC.
# USER AGENT: Mozilla/5.0 (Windows NT 10.0; Win64; x64) AppleWebKit/537.36 (KHTML, like Gecko) Chrome/74.0.3729.131 Safari/537.36
# Design number was non-random = 53
#
# The lines below this comment are in groups of 2.
# The formats of the lines in each of these groups are as follows:
#
# Line 1:
#     Col. 1: Time results were received.
#     Col. 2: MD5 hash of participant's IP address.
#     Col. 3: Controller name.
#     Col. 4: Item number.
#     Col. 5: Element number.
#     Col. 6: Type.
#     Col. 7: Group.
#     Col. 8: Field name.
#     Col. 9: Field value.
# Line 2:
#     Col. 1: Time results were received.
#     Col. 2: MD5 hash of participant's IP address.
#     Col. 3: Controller name.
#     Col. 4: Item number.
#     Col. 5: Element number.
#     Col. 6: Type.
#     Col. 7: Group.
#     Col. 8: Question (NULL if none).
#     Col. 9: Answer.
#     Col. 10: Whether or not answer was correct (NULL if N/A).
#     Col. 11: Time taken to answer.
1557173355,c5e2481fd818b61e77477c0f5f8161dc,Form,1,0,intro,NULL,_REACTION_TIME_,5128
1557173355,c5e2481fd818b61e77477c0f5f8161dc,Question,7,0,prior-24,1,<p> Alex is in a restaurant.  The menu includes a sandwich which costs $15%2C and a soup which costs $10%2C as well pizza and other things. </p> <p> There is a special today. If you order both the sandwich and soup%2C you get a discount. Instead of paying 25 Dollars%2C you pay only 24 Dollars. </p> <p> Alex is currently having a sandwich. <b> How likely is it%2C in your opinion%2C that she also ordered soup? </b> </p>,4,NULL,30931
# Columns below this comment are as follows:
# 1. Time results were received.
# 2. MD5 hash of participant's IP address.
# 3. Controller name.
# 4. Item number.
# 5. Element number.
# 6. Type.
# 7. Group.
# 8. Field name.
# 9. Field value.
1557173355,c5e2481fd818b61e77477c0f5f8161dc,Form,8,0,comprehension,NULL,q1,Alex
1557173355,c5e2481fd818b61e77477c0f5f8161dc,Form,8,0,comprehension,NULL,q2,no
1557173355,c5e2481fd818b61e77477c0f5f8161dc,Form,8,0,comprehension,NULL,_REACTION_TIME_,7019
1557173355,c5e2481fd818b61e77477c0f5f8161dc,Form,9,0,outro,NULL,nativeq,yes
1557173355,c5e2481fd818b61e77477c0f5f8161dc,Form,9,0,outro,NULL,_REACTION_TIME_,8979
#
# Results on Monday May 06 2019 20:12:02 UTC.
# USER AGENT: Mozilla/5.0 (Windows NT 10.0; Win64; x64) AppleWebKit/537.36 (KHTML, like Gecko) Chrome/74.0.3729.131 Safari/537.36
# Design number was non-random = 55
#
# The lines below this comment are in groups of 2.
# The formats of the lines in each of these groups are as follows:
#
# Line 1:
#     Col. 1: Time results were received.
#     Col. 2: MD5 hash of participant's IP address.
#     Col. 3: Controller name.
#     Col. 4: Item number.
#     Col. 5: Element number.
#     Col. 6: Type.
#     Col. 7: Group.
#     Col. 8: Field name.
#     Col. 9: Field value.
# Line 2:
#     Col. 1: Time results were received.
#     Col. 2: MD5 hash of participant's IP address.
#     Col. 3: Controller name.
#     Col. 4: Item number.
#     Col. 5: Element number.
#     Col. 6: Type.
#     Col. 7: Group.
#     Col. 8: Question (NULL if none).
#     Col. 9: Answer.
#     Col. 10: Whether or not answer was correct (NULL if N/A).
#     Col. 11: Time taken to answer.
1557173523,83e75c3c7db29ed9fb2f74ab153ef781,Form,1,0,intro,NULL,_REACTION_TIME_,16585
1557173523,83e75c3c7db29ed9fb2f74ab153ef781,Question,3,0,prior-16,1,<p> Alex is in a restaurant. The menu includes a sandwich which costs $15%2C and a soup which costs $10%2C as well pizza and other things. </p> <p> There is a special today. If you order both the sandwich and soup%2C you get a discount. Instead of paying 25 Dollars%2C you pay only 16 Dollars. </p> <p> Alex is currently having a sandwich. <b> How likely is it%2C in your opinion%2C that she also ordered soup? </b> </p>,10,NULL,28061
# Columns below this comment are as follows:
# 1. Time results were received.
# 2. MD5 hash of participant's IP address.
# 3. Controller name.
# 4. Item number.
# 5. Element number.
# 6. Type.
# 7. Group.
# 8. Field name.
# 9. Field value.
1557173523,83e75c3c7db29ed9fb2f74ab153ef781,Form,8,0,comprehension,NULL,q1,Alex
1557173523,83e75c3c7db29ed9fb2f74ab153ef781,Form,8,0,comprehension,NULL,q2,yes
1557173523,83e75c3c7db29ed9fb2f74ab153ef781,Form,8,0,comprehension,NULL,_REACTION_TIME_,11053
1557173523,83e75c3c7db29ed9fb2f74ab153ef781,Form,9,0,outro,NULL,nativeq,yes
1557173523,83e75c3c7db29ed9fb2f74ab153ef781,Form,9,0,outro,NULL,_REACTION_TIME_,13981
#
# Results on Monday May 06 2019 20:13:16 UTC.
# USER AGENT: Mozilla/5.0 (Windows NT 10.0; Win64; x64) AppleWebKit/537.36 (KHTML, like Gecko) Chrome/73.0.3683.103 Safari/537.36
# Design number was non-random = 56
#
# The lines below this comment are in groups of 2.
# The formats of the lines in each of these groups are as follows:
#
# Line 1:
#     Col. 1: Time results were received.
#     Col. 2: MD5 hash of participant's IP address.
#     Col. 3: Controller name.
#     Col. 4: Item number.
#     Col. 5: Element number.
#     Col. 6: Type.
#     Col. 7: Group.
#     Col. 8: Field name.
#     Col. 9: Field value.
# Line 2:
#     Col. 1: Time results were received.
#     Col. 2: MD5 hash of participant's IP address.
#     Col. 3: Controller name.
#     Col. 4: Item number.
#     Col. 5: Element number.
#     Col. 6: Type.
#     Col. 7: Group.
#     Col. 8: Question (NULL if none).
#     Col. 9: Answer.
#     Col. 10: Whether or not answer was correct (NULL if N/A).
#     Col. 11: Time taken to answer.
1557173596,4aadd4ce2610d2470a7b4b1a7d4a54f0,Form,1,0,intro,NULL,_REACTION_TIME_,4164
1557173596,4aadd4ce2610d2470a7b4b1a7d4a54f0,Question,4,0,prior-18,1,<p> Alex is in a restaurant. The menu includes a sandwich which costs $15%2C and a soup which costs $10%2C as well pizza and other things. </p> <p> There is a special today. If you order both the sandwich and soup%2C you get a discount. Instead of paying 25 Dollars%2C you pay only 18 Dollars. </p> <p> Alex is currently having a sandwich. <b> How likely is it%2C in your opinion%2C that she also ordered soup? </b> </p>,6,NULL,11919
# Columns below this comment are as follows:
# 1. Time results were received.
# 2. MD5 hash of participant's IP address.
# 3. Controller name.
# 4. Item number.
# 5. Element number.
# 6. Type.
# 7. Group.
# 8. Field name.
# 9. Field value.
1557173596,4aadd4ce2610d2470a7b4b1a7d4a54f0,Form,8,0,comprehension,NULL,q1,Alex
1557173596,4aadd4ce2610d2470a7b4b1a7d4a54f0,Form,8,0,comprehension,NULL,q2,no
1557173596,4aadd4ce2610d2470a7b4b1a7d4a54f0,Form,8,0,comprehension,NULL,_REACTION_TIME_,3954
1557173596,4aadd4ce2610d2470a7b4b1a7d4a54f0,Form,9,0,outro,NULL,nativeq,yes
1557173596,4aadd4ce2610d2470a7b4b1a7d4a54f0,Form,9,0,outro,NULL,_REACTION_TIME_,4434
#
# Results on Monday May 06 2019 20:13:18 UTC.
# USER AGENT: Mozilla/5.0 (Windows NT 6.1; Win64; x64) AppleWebKit/537.36 (KHTML, like Gecko) Chrome/73.0.3683.103 Safari/537.36
# Design number was non-random = 55
#
# The lines below this comment are in groups of 2.
# The formats of the lines in each of these groups are as follows:
#
# Line 1:
#     Col. 1: Time results were received.
#     Col. 2: MD5 hash of participant's IP address.
#     Col. 3: Controller name.
#     Col. 4: Item number.
#     Col. 5: Element number.
#     Col. 6: Type.
#     Col. 7: Group.
#     Col. 8: Field name.
#     Col. 9: Field value.
# Line 2:
#     Col. 1: Time results were received.
#     Col. 2: MD5 hash of participant's IP address.
#     Col. 3: Controller name.
#     Col. 4: Item number.
#     Col. 5: Element number.
#     Col. 6: Type.
#     Col. 7: Group.
