#
# Results on Wednesday May 08 2019 15:24:42 UTC.
# USER AGENT: Mozilla/5.0 (Macintosh; Intel Mac OS X 10_14_0) AppleWebKit/537.36 (KHTML, like Gecko) Chrome/73.0.3683.103 Safari/537.36
# Design number was non-random = 11
#
# Columns below this comment are as follows:
# 1. Time results were received.
# 2. MD5 hash of participant's IP address.
# 3. Controller name.
# 4. Item number.
# 5. Element number.
# 6. Type.
# 7. Group.
# 8. Field name.
# 9. Field value.
1557329082,1e9edb9a8dc4d88ee89785eff3e7bd6b,Form,1,0,intro,NULL,_REACTION_TIME_,1074
1557329082,1e9edb9a8dc4d88ee89785eff3e7bd6b,Form,14,0,comprehension,NULL,q1,Alex
1557329082,1e9edb9a8dc4d88ee89785eff3e7bd6b,Form,14,0,comprehension,NULL,q2,18
1557329082,1e9edb9a8dc4d88ee89785eff3e7bd6b,Form,14,0,comprehension,NULL,_REACTION_TIME_,3080
1557329082,1e9edb9a8dc4d88ee89785eff3e7bd6b,Form,15,0,outro,NULL,nativeq,no
1557329082,1e9edb9a8dc4d88ee89785eff3e7bd6b,Form,15,0,outro,NULL,_REACTION_TIME_,1829
#
# Results on Wednesday May 08 2019 15:29:07 UTC.
# USER AGENT: Mozilla/5.0 (Macintosh; Intel Mac OS X 10_14_0) AppleWebKit/537.36 (KHTML, like Gecko) Chrome/73.0.3683.103 Safari/537.36
# Design number was non-random = 12
#
# Columns below this comment are as follows:
# 1. Time results were received.
# 2. MD5 hash of participant's IP address.
# 3. Controller name.
# 4. Item number.
# 5. Element number.
# 6. Type.
# 7. Group.
# 8. Field name.
# 9. Field value.
1557329347,1e9edb9a8dc4d88ee89785eff3e7bd6b,Form,1,0,intro,NULL,_REACTION_TIME_,1877
1557329347,1e9edb9a8dc4d88ee89785eff3e7bd6b,Form,2,0,single-15,1,single,8
1557329347,1e9edb9a8dc4d88ee89785eff3e7bd6b,Form,2,0,single-15,1,both,3
1557329347,1e9edb9a8dc4d88ee89785eff3e7bd6b,Form,2,0,single-15,1,exhaust,1
1557329347,1e9edb9a8dc4d88ee89785eff3e7bd6b,Form,2,0,single-15,1,_REACTION_TIME_,9063
1557329347,1e9edb9a8dc4d88ee89785eff3e7bd6b,Form,14,0,comprehension,NULL,q1,Sam
1557329347,1e9edb9a8dc4d88ee89785eff3e7bd6b,Form,14,0,comprehension,NULL,q2,18
1557329347,1e9edb9a8dc4d88ee89785eff3e7bd6b,Form,14,0,comprehension,NULL,_REACTION_TIME_,3810
1557329347,1e9edb9a8dc4d88ee89785eff3e7bd6b,Form,15,0,outro,NULL,nativeq,no
1557329347,1e9edb9a8dc4d88ee89785eff3e7bd6b,Form,15,0,outro,NULL,_REACTION_TIME_,3001
#
# Results on Wednesday May 08 2019 20:22:16 UTC.
# USER AGENT: Mozilla/5.0 (Macintosh; Intel Mac OS X 10_11_6) AppleWebKit/537.36 (KHTML, like Gecko) Chrome/74.0.3729.131 Safari/537.36
# Design number was non-random = 13
#
# Columns below this comment are as follows:
# 1. Time results were received.
# 2. MD5 hash of participant's IP address.
# 3. Controller name.
# 4. Item number.
# 5. Element number.
# 6. Type.
# 7. Group.
# 8. Field name.
# 9. Field value.
1557346937,ce2e1a8fc084b6e1663876c3663e7e41,Form,1,0,intro,NULL,_REACTION_TIME_,1277
1557346937,ce2e1a8fc084b6e1663876c3663e7e41,Form,3,0,both-15,1,_REACTION_TIME_,6867
1557346937,ce2e1a8fc084b6e1663876c3663e7e41,Form,14,0,comprehension,NULL,q1,Sam
1557346937,ce2e1a8fc084b6e1663876c3663e7e41,Form,14,0,comprehension,NULL,q2,24
1557346937,ce2e1a8fc084b6e1663876c3663e7e41,Form,14,0,comprehension,NULL,_REACTION_TIME_,3095
1557346937,ce2e1a8fc084b6e1663876c3663e7e41,Form,15,0,outro,NULL,nativeq,no
1557346937,ce2e1a8fc084b6e1663876c3663e7e41,Form,15,0,outro,NULL,_REACTION_TIME_,4470
#
# Results on Wednesday May 08 2019 20:30:27 UTC.
# USER AGENT: Mozilla/5.0 (Windows NT 10.0; Win64; x64; rv:66.0) Gecko/20100101 Firefox/66.0
# Design number was non-random = 14
#
# Columns below this comment are as follows:
# 1. Time results were received.
# 2. MD5 hash of participant's IP address.
# 3. Controller name.
# 4. Item number.
# 5. Element number.
# 6. Type.
# 7. Group.
# 8. Field name.
# 9. Field value.
1557347428,6bfd1828b6fc56dd25362abdcc18ee0d,Form,1,0,intro,NULL,_REACTION_TIME_,2084
1557347428,6bfd1828b6fc56dd25362abdcc18ee0d,Form,4,0,single-16,1,single,1
1557347428,6bfd1828b6fc56dd25362abdcc18ee0d,Form,4,0,single-16,1,“both”,1
1557347428,6bfd1828b6fc56dd25362abdcc18ee0d,Form,4,0,single-16,1,exhaust,1
1557347428,6bfd1828b6fc56dd25362abdcc18ee0d,Form,4,0,single-16,1,_REACTION_TIME_,20611
1557347428,6bfd1828b6fc56dd25362abdcc18ee0d,Form,14,0,comprehension,NULL,q1,Alex
1557347428,6bfd1828b6fc56dd25362abdcc18ee0d,Form,14,0,comprehension,NULL,q2,16
1557347428,6bfd1828b6fc56dd25362abdcc18ee0d,Form,14,0,comprehension,NULL,_REACTION_TIME_,6270
1557347428,6bfd1828b6fc56dd25362abdcc18ee0d,Form,15,0,outro,NULL,nativeq,yes
1557347428,6bfd1828b6fc56dd25362abdcc18ee0d,Form,15,0,outro,NULL,_REACTION_TIME_,2975
#
# Results on Wednesday May 08 2019 20:30:54 UTC.
# USER AGENT: Mozilla/5.0 (Windows NT 10.0; Win64; x64; rv:66.0) Gecko/20100101 Firefox/66.0
# Design number was non-random = 14
#
# Columns below this comment are as follows:
# 1. Time results were received.
# 2. MD5 hash of participant's IP address.
# 3. Controller name.
# 4. Item number.
# 5. Element number.
# 6. Type.
# 7. Group.
# 8. Field name.
# 9. Field value.
1557347454,3e6849ddd9bc876ac253b998c39d5cb9,Form,1,0,intro,NULL,_REACTION_TIME_,4022
1557347454,3e6849ddd9bc876ac253b998c39d5cb9,Form,4,0,single-16,1,single,1
1557347454,3e6849ddd9bc876ac253b998c39d5cb9,Form,4,0,single-16,1,both,3
1557347454,3e6849ddd9bc876ac253b998c39d5cb9,Form,4,0,single-16,1,exhaust,1
1557347454,3e6849ddd9bc876ac253b998c39d5cb9,Form,4,0,single-16,1,_REACTION_TIME_,44234
1557347454,3e6849ddd9bc876ac253b998c39d5cb9,Form,14,0,comprehension,NULL,q1,Alex
1557347454,3e6849ddd9bc876ac253b998c39d5cb9,Form,14,0,comprehension,NULL,q2,16
1557347454,3e6849ddd9bc876ac253b998c39d5cb9,Form,14,0,comprehension,NULL,_REACTION_TIME_,5798
1557347454,3e6849ddd9bc876ac253b998c39d5cb9,Form,15,0,outro,NULL,nativeq,yes
1557347454,3e6849ddd9bc876ac253b998c39d5cb9,Form,15,0,outro,NULL,_REACTION_TIME_,8819
#
# Results on Wednesday May 08 2019 20:31:04 UTC.
# USER AGENT: Mozilla/5.0 (Windows NT 10.0; Win64; x64) AppleWebKit/537.36 (KHTML, like Gecko) Chrome/73.0.3683.103 Safari/537.36
# Design number was non-random = 14
#
# Columns below this comment are as follows:
# 1. Time results were received.
# 2. MD5 hash of participant's IP address.
# 3. Controller name.
# 4. Item number.
# 5. Element number.
# 6. Type.
# 7. Group.
# 8. Field name.
# 9. Field value.
1557347464,9f4b66370c833d970df92f21e554c73f,Form,1,0,intro,NULL,_REACTION_TIME_,58587
1557347464,9f4b66370c833d970df92f21e554c73f,Form,4,0,single-16,1,single,9
1557347464,9f4b66370c833d970df92f21e554c73f,Form,4,0,single-16,1,both,9
1557347464,9f4b66370c833d970df92f21e554c73f,Form,4,0,single-16,1,exhaust,9
1557347464,9f4b66370c833d970df92f21e554c73f,Form,4,0,single-16,1,_REACTION_TIME_,8452
1557347464,9f4b66370c833d970df92f21e554c73f,Form,14,0,comprehension,NULL,q1,Alex
1557347464,9f4b66370c833d970df92f21e554c73f,Form,14,0,comprehension,NULL,q2,15
1557347464,9f4b66370c833d970df92f21e554c73f,Form,14,0,comprehension,NULL,_REACTION_TIME_,4662
1557347464,9f4b66370c833d970df92f21e554c73f,Form,15,0,outro,NULL,nativeq,yes
1557347464,9f4b66370c833d970df92f21e554c73f,Form,15,0,outro,NULL,_REACTION_TIME_,4990
#
# Results on Wednesday May 08 2019 20:31:21 UTC.
# USER AGENT: Mozilla/5.0 (Windows NT 10.0; Win64; x64; rv:66.0) Gecko/20100101 Firefox/66.0
# Design number was non-random = 14
#
# Columns below this comment are as follows:
# 1. Time results were received.
# 2. MD5 hash of participant's IP address.
# 3. Controller name.
# 4. Item number.
# 5. Element number.
# 6. Type.
# 7. Group.
# 8. Field name.
# 9. Field value.
1557347482,f1c025a4bca976bcb49dbe93b9a65735,Form,1,0,intro,NULL,_REACTION_TIME_,10662
1557347482,f1c025a4bca976bcb49dbe93b9a65735,Form,4,0,single-16,1,single,1
1557347482,f1c025a4bca976bcb49dbe93b9a65735,Form,4,0,single-16,1,“both”,1
1557347482,f1c025a4bca976bcb49dbe93b9a65735,Form,4,0,single-16,1,exhaust,1
1557347482,f1c025a4bca976bcb49dbe93b9a65735,Form,4,0,single-16,1,_REACTION_TIME_,33819
1557347482,f1c025a4bca976bcb49dbe93b9a65735,Form,14,0,comprehension,NULL,q1,Alex
1557347482,f1c025a4bca976bcb49dbe93b9a65735,Form,14,0,comprehension,NULL,q2,16
1557347482,f1c025a4bca976bcb49dbe93b9a65735,Form,14,0,comprehension,NULL,_REACTION_TIME_,6509
1557347482,f1c025a4bca976bcb49dbe93b9a65735,Form,15,0,outro,NULL,nativeq,no
1557347482,f1c025a4bca976bcb49dbe93b9a65735,Form,15,0,outro,NULL,_REACTION_TIME_,13732
#
# Results on Wednesday May 08 2019 20:31:34 UTC.
# USER AGENT: Mozilla/5.0 (Windows NT 10.0; Win64; x64) AppleWebKit/537.36 (KHTML, like Gecko) Chrome/74.0.3729.131 Safari/537.36
# Design number was non-random = 15
#
# Columns below this comment are as follows:
# 1. Time results were received.
# 2. MD5 hash of participant's IP address.
# 3. Controller name.
# 4. Item number.
# 5. Element number.
# 6. Type.
# 7. Group.
# 8. Field name.
# 9. Field value.
1557347495,7bb3b7ecb4095380886e5afc6a966e5c,Form,1,0,intro,NULL,_REACTION_TIME_,3729
1557347495,7bb3b7ecb4095380886e5afc6a966e5c,Form,5,0,both-16,1,single,1
1557347495,7bb3b7ecb4095380886e5afc6a966e5c,Form,5,0,both-16,1,both,9
1557347495,7bb3b7ecb4095380886e5afc6a966e5c,Form,5,0,both-16,1,exhaust,1
1557347495,7bb3b7ecb4095380886e5afc6a966e5c,Form,5,0,both-16,1,_REACTION_TIME_,29937
1557347495,7bb3b7ecb4095380886e5afc6a966e5c,Form,14,0,comprehension,NULL,q1,Alex
1557347495,7bb3b7ecb4095380886e5afc6a966e5c,Form,14,0,comprehension,NULL,q2,16
1557347495,7bb3b7ecb4095380886e5afc6a966e5c,Form,14,0,comprehension,NULL,_REACTION_TIME_,4051
1557347495,7bb3b7ecb4095380886e5afc6a966e5c,Form,15,0,outro,NULL,nativeq,yes
1557347495,7bb3b7ecb4095380886e5afc6a966e5c,Form,15,0,outro,NULL,_REACTION_TIME_,3891
#
# Results on Wednesday May 08 2019 20:32:34 UTC.
# USER AGENT: Mozilla/5.0 (Windows NT 10.0; Win64; x64) AppleWebKit/537.36 (KHTML, like Gecko) Chrome/74.0.3729.131 Safari/537.36
# Design number was non-random = 15
#
# Columns below this comment are as follows:
# 1. Time results were received.
# 2. MD5 hash of participant's IP address.
# 3. Controller name.
# 4. Item number.
# 5. Element number.
# 6. Type.
# 7. Group.
# 8. Field name.
# 9. Field value.
1557347555,a5ac7bc42439165499ad8b9b1800071d,Form,1,0,intro,NULL,_REACTION_TIME_,8267
1557347555,a5ac7bc42439165499ad8b9b1800071d,Form,5,0,both-16,1,single,1
1557347555,a5ac7bc42439165499ad8b9b1800071d,Form,5,0,both-16,1,both,1
1557347555,a5ac7bc42439165499ad8b9b1800071d,Form,5,0,both-16,1,exhaust,1
1557347555,a5ac7bc42439165499ad8b9b1800071d,Form,5,0,both-16,1,_REACTION_TIME_,55207
1557347555,a5ac7bc42439165499ad8b9b1800071d,Form,14,0,comprehension,NULL,q1,Alex
1557347555,a5ac7bc42439165499ad8b9b1800071d,Form,14,0,comprehension,NULL,q2,16
1557347555,a5ac7bc42439165499ad8b9b1800071d,Form,14,0,comprehension,NULL,_REACTION_TIME_,10923
1557347555,a5ac7bc42439165499ad8b9b1800071d,Form,15,0,outro,NULL,nativeq,no
1557347555,a5ac7bc42439165499ad8b9b1800071d,Form,15,0,outro,NULL,_REACTION_TIME_,35099
#
# Results on Wednesday May 08 2019 20:32:49 UTC.
# USER AGENT: Mozilla/5.0 (Windows NT 10.0; Win64; x64) AppleWebKit/537.36 (KHTML, like Gecko) Chrome/74.0.3729.131 Safari/537.36
# Design number was non-random = 15
#
# Columns below this comment are as follows:
# 1. Time results were received.
# 2. MD5 hash of participant's IP address.
# 3. Controller name.
# 4. Item number.
# 5. Element number.
# 6. Type.
# 7. Group.
# 8. Field name.
# 9. Field value.
1557347569,7d93fef7c25f77697e4f0679e75c8eaf,Form,1,0,intro,NULL,_REACTION_TIME_,4796
1557347569,7d93fef7c25f77697e4f0679e75c8eaf,Form,5,0,both-16,1,single,7
1557347569,7d93fef7c25f77697e4f0679e75c8eaf,Form,5,0,both-16,1,both,9
1557347569,7d93fef7c25f77697e4f0679e75c8eaf,Form,5,0,both-16,1,exhaust,2
1557347569,7d93fef7c25f77697e4f0679e75c8eaf,Form,5,0,both-16,1,_REACTION_TIME_,27327
1557347569,7d93fef7c25f77697e4f0679e75c8eaf,Form,14,0,comprehension,NULL,q1,Alex
1557347569,7d93fef7c25f77697e4f0679e75c8eaf,Form,14,0,comprehension,NULL,q2,16
1557347569,7d93fef7c25f77697e4f0679e75c8eaf,Form,14,0,comprehension,NULL,_REACTION_TIME_,93688
1557347569,7d93fef7c25f77697e4f0679e75c8eaf,Form,15,0,outro,NULL,nativeq,yes
1557347569,7d93fef7c25f77697e4f0679e75c8eaf,Form,15,0,outro,NULL,_REACTION_TIME_,6355
#
# Results on Wednesday May 08 2019 20:33:08 UTC.
# USER AGENT: Mozilla/5.0 (Windows NT 6.1; Win64; x64) AppleWebKit/537.36 (KHTML, like Gecko) Chrome/74.0.3729.131 Safari/537.36
# Design number was non-random = 19
#
# Columns below this comment are as follows:
# 1. Time results were received.
# 2. MD5 hash of participant's IP address.
# 3. Controller name.
# 4. Item number.
# 5. Element number.
# 6. Type.
# 7. Group.
# 8. Field name.
# 9. Field value.
1557347589,87f457b856fb81785926e65edd2a0d09,Form,1,0,intro,NULL,_REACTION_TIME_,4098
1557347589,87f457b856fb81785926e65edd2a0d09,Form,9,0,both-20,1,single,5
1557347589,87f457b856fb81785926e65edd2a0d09,Form,9,0,both-20,1,both,4
1557347589,87f457b856fb81785926e65edd2a0d09,Form,9,0,both-20,1,exhaust,9
1557347589,87f457b856fb81785926e65edd2a0d09,Form,9,0,both-20,1,_REACTION_TIME_,21052
1557347589,87f457b856fb81785926e65edd2a0d09,Form,14,0,comprehension,NULL,q1,Alex
1557347589,87f457b856fb81785926e65edd2a0d09,Form,14,0,comprehension,NULL,q2,20
1557347589,87f457b856fb81785926e65edd2a0d09,Form,14,0,comprehension,NULL,_REACTION_TIME_,5529
1557347589,87f457b856fb81785926e65edd2a0d09,Form,15,0,outro,NULL,nativeq,yes
1557347589,87f457b856fb81785926e65edd2a0d09,Form,15,0,outro,NULL,_REACTION_TIME_,8451
#
# Results on Wednesday May 08 2019 20:33:36 UTC.
# USER AGENT: Mozilla/5.0 (Macintosh; Intel Mac OS X 10.14; rv:66.0) Gecko/20100101 Firefox/66.0
# Design number was non-random = 19
#
# Columns below this comment are as follows:
# 1. Time results were received.
# 2. MD5 hash of participant's IP address.
# 3. Controller name.
# 4. Item number.
# 5. Element number.
# 6. Type.
# 7. Group.
# 8. Field name.
# 9. Field value.
1557347616,77cc93f06fea81f5e6c4e2412c8717cf,Form,1,0,intro,NULL,_REACTION_TIME_,5986
1557347616,77cc93f06fea81f5e6c4e2412c8717cf,Form,9,0,both-20,1,single,3
1557347616,77cc93f06fea81f5e6c4e2412c8717cf,Form,9,0,both-20,1,both,1
1557347616,77cc93f06fea81f5e6c4e2412c8717cf,Form,9,0,both-20,1,exhaust,1
1557347616,77cc93f06fea81f5e6c4e2412c8717cf,Form,9,0,both-20,1,_REACTION_TIME_,33545
1557347616,77cc93f06fea81f5e6c4e2412c8717cf,Form,14,0,comprehension,NULL,q1,Alex
1557347616,77cc93f06fea81f5e6c4e2412c8717cf,Form,14,0,comprehension,NULL,q2,20
1557347616,77cc93f06fea81f5e6c4e2412c8717cf,Form,14,0,comprehension,NULL,_REACTION_TIME_,15713
1557347616,77cc93f06fea81f5e6c4e2412c8717cf,Form,15,0,outro,NULL,nativeq,yes
1557347616,77cc93f06fea81f5e6c4e2412c8717cf,Form,15,0,outro,NULL,_REACTION_TIME_,7523
#
# Results on Wednesday May 08 2019 20:34:25 UTC.
# USER AGENT: Mozilla/5.0 (Windows NT 10.0; Win64; x64) AppleWebKit/537.36 (KHTML, like Gecko) Chrome/74.0.3729.131 Safari/537.36
# Design number was non-random = 19
#
# Columns below this comment are as follows:
# 1. Time results were received.
# 2. MD5 hash of participant's IP address.
# 3. Controller name.
# 4. Item number.
# 5. Element number.
# 6. Type.
# 7. Group.
# 8. Field name.
# 9. Field value.
1557347665,f16d0f7fd327b966f2cef42c980aa7f8,Form,1,0,intro,NULL,_REACTION_TIME_,23256
1557347665,f16d0f7fd327b966f2cef42c980aa7f8,Form,9,0,both-20,1,single,5
1557347665,f16d0f7fd327b966f2cef42c980aa7f8,Form,9,0,both-20,1,both,1
1557347665,f16d0f7fd327b966f2cef42c980aa7f8,Form,9,0,both-20,1,exhaust,1
1557347665,f16d0f7fd327b966f2cef42c980aa7f8,Form,9,0,both-20,1,_REACTION_TIME_,66687
1557347665,f16d0f7fd327b966f2cef42c980aa7f8,Form,14,0,comprehension,NULL,q1,Alex
1557347665,f16d0f7fd327b966f2cef42c980aa7f8,Form,14,0,comprehension,NULL,q2,20
1557347665,f16d0f7fd327b966f2cef42c980aa7f8,Form,14,0,comprehension,NULL,_REACTION_TIME_,16945
1557347665,f16d0f7fd327b966f2cef42c980aa7f8,Form,15,0,outro,NULL,nativeq,yes
1557347665,f16d0f7fd327b966f2cef42c980aa7f8,Form,15,0,outro,NULL,_REACTION_TIME_,22128
#
# Results on Wednesday May 08 2019 20:34:37 UTC.
# USER AGENT: Mozilla/5.0 (Windows NT 10.0; Win64; x64; rv:66.0) Gecko/20100101 Firefox/66.0
# Design number was non-random = 23
#
# Columns below this comment are as follows:
# 1. Time results were received.
# 2. MD5 hash of participant's IP address.
# 3. Controller name.
# 4. Item number.
# 5. Element number.
# 6. Type.
# 7. Group.
# 8. Field name.
# 9. Field value.
1557347678,64cd995157c4a8b6398f951182d67be6,Form,1,0,intro,NULL,_REACTION_TIME_,1876
1557347678,64cd995157c4a8b6398f951182d67be6,Form,13,0,both-24,1,single,1
1557347678,64cd995157c4a8b6398f951182d67be6,Form,13,0,both-24,1,both,1
1557347678,64cd995157c4a8b6398f951182d67be6,Form,13,0,both-24,1,exhaust,1
1557347678,64cd995157c4a8b6398f951182d67be6,Form,13,0,both-24,1,_REACTION_TIME_,30366
1557347678,64cd995157c4a8b6398f951182d67be6,Form,14,0,comprehension,NULL,q1,Alex
1557347678,64cd995157c4a8b6398f951182d67be6,Form,14,0,comprehension,NULL,q2,24
1557347678,64cd995157c4a8b6398f951182d67be6,Form,14,0,comprehension,NULL,_REACTION_TIME_,8584
1557347678,64cd995157c4a8b6398f951182d67be6,Form,15,0,outro,NULL,nativeq,yes
1557347678,64cd995157c4a8b6398f951182d67be6,Form,15,0,outro,NULL,_REACTION_TIME_,4426
#
# Results on Wednesday May 08 2019 20:35:00 UTC.
# USER AGENT: Mozilla/5.0 (Windows NT 10.0; Win64; x64) AppleWebKit/537.36 (KHTML, like Gecko) Chrome/64.0.3282.140 Safari/537.36 Edge/17.17134
# Design number was non-random = 23
#
# Columns below this comment are as follows:
# 1. Time results were received.
# 2. MD5 hash of participant's IP address.
# 3. Controller name.
# 4. Item number.
# 5. Element number.
# 6. Type.
# 7. Group.
# 8. Field name.
# 9. Field value.
1557347701,1f2b7796bf99ba51c1d9d4cd82e4db7b,Form,1,0,intro,NULL,_REACTION_TIME_,7412
1557347701,1f2b7796bf99ba51c1d9d4cd82e4db7b,Form,13,0,both-24,1,single,7
1557347701,1f2b7796bf99ba51c1d9d4cd82e4db7b,Form,13,0,both-24,1,both,9
1557347701,1f2b7796bf99ba51c1d9d4cd82e4db7b,Form,13,0,both-24,1,exhaust,1
1557347701,1f2b7796bf99ba51c1d9d4cd82e4db7b,Form,13,0,both-24,1,_REACTION_TIME_,44701
1557347701,1f2b7796bf99ba51c1d9d4cd82e4db7b,Form,14,0,comprehension,NULL,q1,Alex
1557347701,1f2b7796bf99ba51c1d9d4cd82e4db7b,Form,14,0,comprehension,NULL,q2,24
1557347701,1f2b7796bf99ba51c1d9d4cd82e4db7b,Form,14,0,comprehension,NULL,_REACTION_TIME_,7187
1557347701,1f2b7796bf99ba51c1d9d4cd82e4db7b,Form,15,0,outro,NULL,nativeq,yes
1557347701,1f2b7796bf99ba51c1d9d4cd82e4db7b,Form,15,0,outro,NULL,_REACTION_TIME_,13931
#
# Results on Wednesday May 08 2019 20:35:12 UTC.
# USER AGENT: Mozilla/5.0 (Macintosh; Intel Mac OS X 10_13_6) AppleWebKit/605.1.15 (KHTML, like Gecko) Version/12.1 Safari/605.1.15
# Design number was non-random = 23
#
# Columns below this comment are as follows:
# 1. Time results were received.
# 2. MD5 hash of participant's IP address.
# 3. Controller name.
# 4. Item number.
# 5. Element number.
# 6. Type.
# 7. Group.
# 8. Field name.
# 9. Field value.
1557347712,6899b481cbabd69b80f6ef559982e9f9,Form,1,0,intro,NULL,_REACTION_TIME_,6411
1557347712,6899b481cbabd69b80f6ef559982e9f9,Form,13,0,both-24,1,single,1
1557347712,6899b481cbabd69b80f6ef559982e9f9,Form,13,0,both-24,1,both,1
1557347712,6899b481cbabd69b80f6ef559982e9f9,Form,13,0,both-24,1,exhaust,1
1557347712,6899b481cbabd69b80f6ef559982e9f9,Form,13,0,both-24,1,_REACTION_TIME_,38113
1557347712,6899b481cbabd69b80f6ef559982e9f9,Form,14,0,comprehension,NULL,q1,Alex
1557347712,6899b481cbabd69b80f6ef559982e9f9,Form,14,0,comprehension,NULL,q2,24
1557347712,6899b481cbabd69b80f6ef559982e9f9,Form,14,0,comprehension,NULL,_REACTION_TIME_,6806
1557347712,6899b481cbabd69b80f6ef559982e9f9,Form,15,0,outro,NULL,nativeq,yes
1557347712,6899b481cbabd69b80f6ef559982e9f9,Form,15,0,outro,NULL,_REACTION_TIME_,10065
#
# Results on Wednesday May 08 2019 20:36:19 UTC.
# USER AGENT: Mozilla/5.0 (Windows NT 10.0; Win64; x64) AppleWebKit/537.36 (KHTML, like Gecko) Chrome/74.0.3729.131 Safari/537.36
# Design number was non-random = 27
#
# Columns below this comment are as follows:
# 1. Time results were received.
# 2. MD5 hash of participant's IP address.
# 3. Controller name.
# 4. Item number.
# 5. Element number.
# 6. Type.
# 7. Group.
# 8. Field name.
# 9. Field value.
1557347780,6af6e300ab02a0a4f36f245693248c5d,Form,1,0,intro,NULL,_REACTION_TIME_,1782
1557347780,6af6e300ab02a0a4f36f245693248c5d,Form,5,0,both-16,1,single,1
1557347780,6af6e300ab02a0a4f36f245693248c5d,Form,5,0,both-16,1,both,1
1557347780,6af6e300ab02a0a4f36f245693248c5d,Form,5,0,both-16,1,exhaust,1
1557347780,6af6e300ab02a0a4f36f245693248c5d,Form,5,0,both-16,1,_REACTION_TIME_,21392
1557347780,6af6e300ab02a0a4f36f245693248c5d,Form,14,0,comprehension,NULL,q1,Alex
1557347780,6af6e300ab02a0a4f36f245693248c5d,Form,14,0,comprehension,NULL,q2,16
1557347780,6af6e300ab02a0a4f36f245693248c5d,Form,14,0,comprehension,NULL,_REACTION_TIME_,4760
1557347780,6af6e300ab02a0a4f36f245693248c5d,Form,15,0,outro,NULL,nativeq,yes
1557347780,6af6e300ab02a0a4f36f245693248c5d,Form,15,0,outro,NULL,_REACTION_TIME_,5411
#
# Results on Wednesday May 08 2019 20:37:19 UTC.
# USER AGENT: Mozilla/5.0 (Windows NT 6.1; Win64; x64) AppleWebKit/537.36 (KHTML, like Gecko) Chrome/74.0.3729.131 Safari/537.36
# Design number was non-random = 27
#
# Columns below this comment are as follows:
# 1. Time results were received.
# 2. MD5 hash of participant's IP address.
# 3. Controller name.
# 4. Item number.
# 5. Element number.
# 6. Type.
# 7. Group.
# 8. Field name.
# 9. Field value.
1557347840,368fb679b1e4c04fe87d8519c88886aa,Form,1,0,intro,NULL,_REACTION_TIME_,4748
1557347840,368fb679b1e4c04fe87d8519c88886aa,Form,5,0,both-16,1,single,1
1557347840,368fb679b1e4c04fe87d8519c88886aa,Form,5,0,both-16,1,both,1
1557347840,368fb679b1e4c04fe87d8519c88886aa,Form,5,0,both-16,1,exhaust,1
1557347840,368fb679b1e4c04fe87d8519c88886aa,Form,5,0,both-16,1,_REACTION_TIME_,43936
1557347840,368fb679b1e4c04fe87d8519c88886aa,Form,14,0,comprehension,NULL,q1,Alex
1557347840,368fb679b1e4c04fe87d8519c88886aa,Form,14,0,comprehension,NULL,q2,16
1557347840,368fb679b1e4c04fe87d8519c88886aa,Form,14,0,comprehension,NULL,_REACTION_TIME_,6241
1557347840,368fb679b1e4c04fe87d8519c88886aa,Form,15,0,outro,NULL,nativeq,yes
1557347840,368fb679b1e4c04fe87d8519c88886aa,Form,15,0,outro,NULL,_REACTION_TIME_,8644
#
# Results on Wednesday May 08 2019 20:37:27 UTC.
# USER AGENT: Mozilla/5.0 (Macintosh; Intel Mac OS X 10_13_6) AppleWebKit/537.36 (KHTML, like Gecko) Chrome/74.0.3729.131 Safari/537.36
# Design number was non-random = 28
#
# Columns below this comment are as follows:
# 1. Time results were received.
# 2. MD5 hash of participant's IP address.
# 3. Controller name.
# 4. Item number.
# 5. Element number.
# 6. Type.
# 7. Group.
# 8. Field name.
# 9. Field value.
1557347848,7da0b895c1cbeb7a29dbc2e1cd8f0a7b,Form,1,0,intro,NULL,_REACTION_TIME_,1836
1557347848,7da0b895c1cbeb7a29dbc2e1cd8f0a7b,Form,6,0,single-18,1,single,6
1557347848,7da0b895c1cbeb7a29dbc2e1cd8f0a7b,Form,6,0,single-18,1,both,6
1557347848,7da0b895c1cbeb7a29dbc2e1cd8f0a7b,Form,6,0,single-18,1,exhaust,1
1557347848,7da0b895c1cbeb7a29dbc2e1cd8f0a7b,Form,6,0,single-18,1,_REACTION_TIME_,17147
1557347848,7da0b895c1cbeb7a29dbc2e1cd8f0a7b,Form,14,0,comprehension,NULL,q1,Alex
1557347848,7da0b895c1cbeb7a29dbc2e1cd8f0a7b,Form,14,0,comprehension,NULL,q2,18
1557347848,7da0b895c1cbeb7a29dbc2e1cd8f0a7b,Form,14,0,comprehension,NULL,_REACTION_TIME_,29469
1557347848,7da0b895c1cbeb7a29dbc2e1cd8f0a7b,Form,15,0,outro,NULL,nativeq,yes
1557347848,7da0b895c1cbeb7a29dbc2e1cd8f0a7b,Form,15,0,outro,NULL,_REACTION_TIME_,13017
#
# Results on Wednesday May 08 2019 20:37:31 UTC.
# USER AGENT: Mozilla/5.0 (Windows NT 6.0; WOW64) AppleWebKit/537.36 (KHTML, like Gecko) Chrome/49.0.2623.112 Safari/537.36
# Design number was non-random = 27
#
# Columns below this comment are as follows:
# 1. Time results were received.
# 2. MD5 hash of participant's IP address.
# 3. Controller name.
# 4. Item number.
# 5. Element number.
# 6. Type.
# 7. Group.
# 8. Field name.
# 9. Field value.
1557347851,d4f00180fd7f94df0c272a9135c7d0b1,Form,1,0,intro,NULL,_REACTION_TIME_,1707
1557347851,d4f00180fd7f94df0c272a9135c7d0b1,Form,5,0,both-16,1,single,1
1557347851,d4f00180fd7f94df0c272a9135c7d0b1,Form,5,0,both-16,1,both,1
1557347851,d4f00180fd7f94df0c272a9135c7d0b1,Form,5,0,both-16,1,exhaust,1
1557347851,d4f00180fd7f94df0c272a9135c7d0b1,Form,5,0,both-16,1,_REACTION_TIME_,61978
1557347851,d4f00180fd7f94df0c272a9135c7d0b1,Form,14,0,comprehension,NULL,q1,Alex
1557347851,d4f00180fd7f94df0c272a9135c7d0b1,Form,14,0,comprehension,NULL,q2,16
1557347851,d4f00180fd7f94df0c272a9135c7d0b1,Form,14,0,comprehension,NULL,_REACTION_TIME_,13719
1557347851,d4f00180fd7f94df0c272a9135c7d0b1,Form,15,0,outro,NULL,nativeq,yes
1557347851,d4f00180fd7f94df0c272a9135c7d0b1,Form,15,0,outro,NULL,_REACTION_TIME_,15512
#
# Results on Wednesday May 08 2019 20:37:37 UTC.
# USER AGENT: Mozilla/5.0 (Windows NT 10.0; Win64; x64) AppleWebKit/537.36 (KHTML, like Gecko) Chrome/74.0.3729.131 Safari/537.36
# Design number was non-random = 28
#
# Columns below this comment are as follows:
# 1. Time results were received.
# 2. MD5 hash of participant's IP address.
# 3. Controller name.
# 4. Item number.
# 5. Element number.
# 6. Type.
# 7. Group.
# 8. Field name.
# 9. Field value.
1557347858,013ecac303ea6a708f09f3e1e2e1197f,Form,1,0,intro,NULL,_REACTION_TIME_,11311
1557347858,013ecac303ea6a708f09f3e1e2e1197f,Form,6,0,single-18,1,single,1
1557347858,013ecac303ea6a708f09f3e1e2e1197f,Form,6,0,single-18,1,both,2
1557347858,013ecac303ea6a708f09f3e1e2e1197f,Form,6,0,single-18,1,exhaust,9
1557347858,013ecac303ea6a708f09f3e1e2e1197f,Form,6,0,single-18,1,_REACTION_TIME_,34054
1557347858,013ecac303ea6a708f09f3e1e2e1197f,Form,14,0,comprehension,NULL,q1,Alex
1557347858,013ecac303ea6a708f09f3e1e2e1197f,Form,14,0,comprehension,NULL,q2,22
1557347858,013ecac303ea6a708f09f3e1e2e1197f,Form,14,0,comprehension,NULL,_REACTION_TIME_,7360
1557347858,013ecac303ea6a708f09f3e1e2e1197f,Form,15,0,outro,NULL,nativeq,yes
1557347858,013ecac303ea6a708f09f3e1e2e1197f,Form,15,0,outro,NULL,_REACTION_TIME_,9698
#
# Results on Wednesday May 08 2019 20:38:32 UTC.
# USER AGENT: Mozilla/5.0 (Windows NT 10.0; Win64; x64) AppleWebKit/537.36 (KHTML, like Gecko) Chrome/74.0.3729.131 Safari/537.36
# Design number was non-random = 31
#
# Columns below this comment are as follows:
# 1. Time results were received.
# 2. MD5 hash of participant's IP address.
# 3. Controller name.
# 4. Item number.
# 5. Element number.
# 6. Type.
# 7. Group.
# 8. Field name.
# 9. Field value.
1557347912,0fedf2daa4fe07f1647fedee5339fa2c,Form,1,0,intro,NULL,_REACTION_TIME_,4140
1557347912,0fedf2daa4fe07f1647fedee5339fa2c,Form,9,0,both-20,1,single,1
1557347912,0fedf2daa4fe07f1647fedee5339fa2c,Form,9,0,both-20,1,both,6
1557347912,0fedf2daa4fe07f1647fedee5339fa2c,Form,9,0,both-20,1,exhaust,2
1557347912,0fedf2daa4fe07f1647fedee5339fa2c,Form,9,0,both-20,1,_REACTION_TIME_,34222
1557347912,0fedf2daa4fe07f1647fedee5339fa2c,Form,14,0,comprehension,NULL,q1,Alex
1557347912,0fedf2daa4fe07f1647fedee5339fa2c,Form,14,0,comprehension,NULL,q2,20
1557347912,0fedf2daa4fe07f1647fedee5339fa2c,Form,14,0,comprehension,NULL,_REACTION_TIME_,7451
1557347912,0fedf2daa4fe07f1647fedee5339fa2c,Form,15,0,outro,NULL,nativeq,yes
1557347912,0fedf2daa4fe07f1647fedee5339fa2c,Form,15,0,outro,NULL,_REACTION_TIME_,9078
#
# Results on Wednesday May 08 2019 20:39:44 UTC.
# USER AGENT: Mozilla/5.0 (Windows NT 6.1; Win64; x64; rv:66.0) Gecko/20100101 Firefox/66.0
# Design number was non-random = 33
#
# Columns below this comment are as follows:
# 1. Time results were received.
# 2. MD5 hash of participant's IP address.
# 3. Controller name.
# 4. Item number.
# 5. Element number.
# 6. Type.
# 7. Group.
# 8. Field name.
# 9. Field value.
1557347985,59edcacbf8df0cf373f450489e3d60c6,Form,1,0,intro,NULL,_REACTION_TIME_,1618
1557347985,59edcacbf8df0cf373f450489e3d60c6,Form,11,0,both-22,1,single,6
1557347985,59edcacbf8df0cf373f450489e3d60c6,Form,11,0,both-22,1,both,1
1557347985,59edcacbf8df0cf373f450489e3d60c6,Form,11,0,both-22,1,exhaust,1
1557347985,59edcacbf8df0cf373f450489e3d60c6,Form,11,0,both-22,1,_REACTION_TIME_,32405
1557347985,59edcacbf8df0cf373f450489e3d60c6,Form,14,0,comprehension,NULL,q1,Alex
1557347985,59edcacbf8df0cf373f450489e3d60c6,Form,14,0,comprehension,NULL,q2,22
1557347985,59edcacbf8df0cf373f450489e3d60c6,Form,14,0,comprehension,NULL,_REACTION_TIME_,5626
1557347985,59edcacbf8df0cf373f450489e3d60c6,Form,15,0,outro,NULL,nativeq,yes
1557347985,59edcacbf8df0cf373f450489e3d60c6,Form,15,0,outro,NULL,_REACTION_TIME_,4801
#
# Results on Wednesday May 08 2019 20:40:04 UTC.
# USER AGENT: Mozilla/5.0 (Macintosh; Intel Mac OS X 10_11_6) AppleWebKit/537.36 (KHTML, like Gecko) Chrome/73.0.3683.103 Safari/537.36
# Design number was non-random = 33
#
# Columns below this comment are as follows:
# 1. Time results were received.
# 2. MD5 hash of participant's IP address.
# 3. Controller name.
# 4. Item number.
# 5. Element number.
# 6. Type.
# 7. Group.
# 8. Field name.
# 9. Field value.
1557348005,b5ea9443838dbeac14b3a0b9f89c2710,Form,1,0,intro,NULL,_REACTION_TIME_,6589
1557348005,b5ea9443838dbeac14b3a0b9f89c2710,Form,11,0,both-22,1,single,1
1557348005,b5ea9443838dbeac14b3a0b9f89c2710,Form,11,0,both-22,1,both,1
1557348005,b5ea9443838dbeac14b3a0b9f89c2710,Form,11,0,both-22,1,exhaust,1
1557348005,b5ea9443838dbeac14b3a0b9f89c2710,Form,11,0,both-22,1,_REACTION_TIME_,23879
1557348005,b5ea9443838dbeac14b3a0b9f89c2710,Form,14,0,comprehension,NULL,q1,Alex
1557348005,b5ea9443838dbeac14b3a0b9f89c2710,Form,14,0,comprehension,NULL,q2,22
1557348005,b5ea9443838dbeac14b3a0b9f89c2710,Form,14,0,comprehension,NULL,_REACTION_TIME_,6293
1557348005,b5ea9443838dbeac14b3a0b9f89c2710,Form,15,0,outro,NULL,nativeq,yes
1557348005,b5ea9443838dbeac14b3a0b9f89c2710,Form,15,0,outro,NULL,_REACTION_TIME_,8819
#
# Results on Wednesday May 08 2019 20:42:23 UTC.
# USER AGENT: Mozilla/5.0 (X11; Fedora; Linux x86_64) AppleWebKit/537.36 (KHTML, like Gecko) Chrome/73.0.3683.103 Safari/537.36
# Design number was non-random = 35
#
# Columns below this comment are as follows:
# 1. Time results were received.
# 2. MD5 hash of participant's IP address.
# 3. Controller name.
# 4. Item number.
# 5. Element number.
# 6. Type.
# 7. Group.
# 8. Field name.
# 9. Field value.
1557348144,ff08b761aba3d69e679db9a5f69603a2,Form,1,0,intro,NULL,_REACTION_TIME_,5170
1557348144,ff08b761aba3d69e679db9a5f69603a2,Form,13,0,both-24,1,single,8
1557348144,ff08b761aba3d69e679db9a5f69603a2,Form,13,0,both-24,1,both,9
1557348144,ff08b761aba3d69e679db9a5f69603a2,Form,13,0,both-24,1,exhaust,5
1557348144,ff08b761aba3d69e679db9a5f69603a2,Form,13,0,both-24,1,_REACTION_TIME_,19672
1557348144,ff08b761aba3d69e679db9a5f69603a2,Form,14,0,comprehension,NULL,q1,Alex
1557348144,ff08b761aba3d69e679db9a5f69603a2,Form,14,0,comprehension,NULL,q2,24
1557348144,ff08b761aba3d69e679db9a5f69603a2,Form,14,0,comprehension,NULL,_REACTION_TIME_,6987
1557348144,ff08b761aba3d69e679db9a5f69603a2,Form,15,0,outro,NULL,nativeq,yes
1557348144,ff08b761aba3d69e679db9a5f69603a2,Form,15,0,outro,NULL,_REACTION_TIME_,5868
#
# Results on Wednesday May 08 2019 20:42:38 UTC.
# USER AGENT: Mozilla/5.0 (X11; CrOS x86_64 11647.154.0) AppleWebKit/537.36 (KHTML, like Gecko) Chrome/73.0.3683.114 Safari/537.36
# Design number was non-random = 35
#
# Columns below this comment are as follows:
# 1. Time results were received.
# 2. MD5 hash of participant's IP address.
# 3. Controller name.
# 4. Item number.
# 5. Element number.
# 6. Type.
# 7. Group.
# 8. Field name.
# 9. Field value.
1557348159,3f72c27fade58a0debcaabb4e6e79c1e,Form,1,0,intro,NULL,_REACTION_TIME_,5572
1557348159,3f72c27fade58a0debcaabb4e6e79c1e,Form,13,0,both-24,1,single,2
1557348159,3f72c27fade58a0debcaabb4e6e79c1e,Form,13,0,both-24,1,both,1
1557348159,3f72c27fade58a0debcaabb4e6e79c1e,Form,13,0,both-24,1,exhaust,2
1557348159,3f72c27fade58a0debcaabb4e6e79c1e,Form,13,0,both-24,1,_REACTION_TIME_,42350
1557348159,3f72c27fade58a0debcaabb4e6e79c1e,Form,14,0,comprehension,NULL,q1,Alex
1557348159,3f72c27fade58a0debcaabb4e6e79c1e,Form,14,0,comprehension,NULL,q2,24
1557348159,3f72c27fade58a0debcaabb4e6e79c1e,Form,14,0,comprehension,NULL,_REACTION_TIME_,7144
1557348159,3f72c27fade58a0debcaabb4e6e79c1e,Form,15,0,outro,NULL,nativeq,yes
1557348159,3f72c27fade58a0debcaabb4e6e79c1e,Form,15,0,outro,NULL,_REACTION_TIME_,11630
#
# Results on Wednesday May 08 2019 20:44:04 UTC.
# USER AGENT: Mozilla/5.0 (Windows NT 10.0; Win64; x64) AppleWebKit/537.36 (KHTML, like Gecko) Chrome/74.0.3729.131 Safari/537.36
# Design number was non-random = 37
#
# Columns below this comment are as follows:
# 1. Time results were received.
# 2. MD5 hash of participant's IP address.
# 3. Controller name.
# 4. Item number.
# 5. Element number.
# 6. Type.
# 7. Group.
# 8. Field name.
# 9. Field value.
1557348245,00ca8d01ad903f03e01b1ad12d8cfd5d,Form,1,0,intro,NULL,_REACTION_TIME_,4447
1557348245,00ca8d01ad903f03e01b1ad12d8cfd5d,Form,3,0,both-15,1,single,1
1557348245,00ca8d01ad903f03e01b1ad12d8cfd5d,Form,3,0,both-15,1,both,1
1557348245,00ca8d01ad903f03e01b1ad12d8cfd5d,Form,3,0,both-15,1,exhaust,1
1557348245,00ca8d01ad903f03e01b1ad12d8cfd5d,Form,3,0,both-15,1,_REACTION_TIME_,38772
1557348245,00ca8d01ad903f03e01b1ad12d8cfd5d,Form,14,0,comprehension,NULL,q1,Alex
1557348245,00ca8d01ad903f03e01b1ad12d8cfd5d,Form,14,0,comprehension,NULL,q2,15
1557348245,00ca8d01ad903f03e01b1ad12d8cfd5d,Form,14,0,comprehension,NULL,_REACTION_TIME_,6196
1557348245,00ca8d01ad903f03e01b1ad12d8cfd5d,Form,15,0,outro,NULL,nativeq,yes
1557348245,00ca8d01ad903f03e01b1ad12d8cfd5d,Form,15,0,outro,NULL,_REACTION_TIME_,7718
#
# Results on Wednesday May 08 2019 20:44:33 UTC.
# USER AGENT: Mozilla/5.0 (Windows NT 10.0; Win64; x64) AppleWebKit/537.36 (KHTML, like Gecko) Chrome/74.0.3729.131 Safari/537.36
# Design number was non-random = 37
#
# Columns below this comment are as follows:
# 1. Time results were received.
# 2. MD5 hash of participant's IP address.
# 3. Controller name.
# 4. Item number.
# 5. Element number.
# 6. Type.
# 7. Group.
# 8. Field name.
# 9. Field value.
1557348274,788a6124466aba19e31083cb3bc3b8b8,Form,1,0,intro,NULL,_REACTION_TIME_,16932
1557348274,788a6124466aba19e31083cb3bc3b8b8,Form,3,0,both-15,1,single,8
1557348274,788a6124466aba19e31083cb3bc3b8b8,Form,3,0,both-15,1,both,1
1557348274,788a6124466aba19e31083cb3bc3b8b8,Form,3,0,both-15,1,exhaust,1
1557348274,788a6124466aba19e31083cb3bc3b8b8,Form,3,0,both-15,1,_REACTION_TIME_,28653
1557348274,788a6124466aba19e31083cb3bc3b8b8,Form,14,0,comprehension,NULL,q1,Alex
1557348274,788a6124466aba19e31083cb3bc3b8b8,Form,14,0,comprehension,NULL,q2,15
1557348274,788a6124466aba19e31083cb3bc3b8b8,Form,14,0,comprehension,NULL,_REACTION_TIME_,6275
1557348274,788a6124466aba19e31083cb3bc3b8b8,Form,15,0,outro,NULL,nativeq,yes
1557348274,788a6124466aba19e31083cb3bc3b8b8,Form,15,0,outro,NULL,_REACTION_TIME_,20514
#
# Results on Wednesday May 08 2019 20:44:35 UTC.
# USER AGENT: Mozilla/5.0 (X11; CrOS x86_64 11647.154.0) AppleWebKit/537.36 (KHTML, like Gecko) Chrome/73.0.3683.114 Safari/537.36
# Design number was non-random = 37
#
# Columns below this comment are as follows:
# 1. Time results were received.
# 2. MD5 hash of participant's IP address.
# 3. Controller name.
# 4. Item number.
# 5. Element number.
# 6. Type.
# 7. Group.
# 8. Field name.
# 9. Field value.
1557348276,ccd8433377eaaca8623706e64db4142a,Form,1,0,intro,NULL,_REACTION_TIME_,19721
1557348276,ccd8433377eaaca8623706e64db4142a,Form,3,0,both-15,1,single,1
1557348276,ccd8433377eaaca8623706e64db4142a,Form,3,0,both-15,1,both,1
1557348276,ccd8433377eaaca8623706e64db4142a,Form,3,0,both-15,1,exhaust,1
1557348276,ccd8433377eaaca8623706e64db4142a,Form,3,0,both-15,1,_REACTION_TIME_,47715
1557348276,ccd8433377eaaca8623706e64db4142a,Form,14,0,comprehension,NULL,q1,Alex
1557348276,ccd8433377eaaca8623706e64db4142a,Form,14,0,comprehension,NULL,q2,15
1557348276,ccd8433377eaaca8623706e64db4142a,Form,14,0,comprehension,NULL,_REACTION_TIME_,12389
1557348276,ccd8433377eaaca8623706e64db4142a,Form,15,0,outro,NULL,nativeq,yes
1557348276,ccd8433377eaaca8623706e64db4142a,Form,15,0,outro,NULL,_REACTION_TIME_,23334
#
# Results on Wednesday May 08 2019 20:44:37 UTC.
# USER AGENT: Mozilla/5.0 (X11; CrOS x86_64 11647.104.0) AppleWebKit/537.36 (KHTML, like Gecko) Chrome/73.0.3683.88 Safari/537.36
# Design number was non-random = 37
#
# Columns below this comment are as follows:
# 1. Time results were received.
# 2. MD5 hash of participant's IP address.
# 3. Controller name.
# 4. Item number.
# 5. Element number.
# 6. Type.
# 7. Group.
# 8. Field name.
# 9. Field value.
1557348278,c3d4a4aebec764ddadea0ada6aa63c0f,Form,1,0,intro,NULL,_REACTION_TIME_,10504
1557348278,c3d4a4aebec764ddadea0ada6aa63c0f,Form,3,0,both-15,1,single,9
1557348278,c3d4a4aebec764ddadea0ada6aa63c0f,Form,3,0,both-15,1,both,1
1557348278,c3d4a4aebec764ddadea0ada6aa63c0f,Form,3,0,both-15,1,exhaust,1
1557348278,c3d4a4aebec764ddadea0ada6aa63c0f,Form,3,0,both-15,1,_REACTION_TIME_,55529
1557348278,c3d4a4aebec764ddadea0ada6aa63c0f,Form,14,0,comprehension,NULL,q1,Alex
1557348278,c3d4a4aebec764ddadea0ada6aa63c0f,Form,14,0,comprehension,NULL,q2,15
1557348278,c3d4a4aebec764ddadea0ada6aa63c0f,Form,14,0,comprehension,NULL,_REACTION_TIME_,9438
1557348278,c3d4a4aebec764ddadea0ada6aa63c0f,Form,15,0,outro,NULL,_REACTION_TIME_,14594
#
# Results on Wednesday May 08 2019 20:44:58 UTC.
# USER AGENT: Mozilla/5.0 (Windows NT 10.0; Win64; x64) AppleWebKit/537.36 (KHTML, like Gecko) Chrome/73.0.3683.103 Safari/537.36 OPR/60.0.3255.70
# Design number was non-random = 37
#
# Columns below this comment are as follows:
# 1. Time results were received.
# 2. MD5 hash of participant's IP address.
# 3. Controller name.
# 4. Item number.
# 5. Element number.
# 6. Type.
# 7. Group.
# 8. Field name.
# 9. Field value.
1557348298,24dc9da2214339cebfc181b1f6c12647,Form,1,0,intro,NULL,_REACTION_TIME_,7667
1557348298,24dc9da2214339cebfc181b1f6c12647,Form,3,0,both-15,1,single,2
1557348298,24dc9da2214339cebfc181b1f6c12647,Form,3,0,both-15,1,both,9
1557348298,24dc9da2214339cebfc181b1f6c12647,Form,3,0,both-15,1,exhaust,1
1557348298,24dc9da2214339cebfc181b1f6c12647,Form,3,0,both-15,1,_REACTION_TIME_,48602
1557348298,24dc9da2214339cebfc181b1f6c12647,Form,14,0,comprehension,NULL,q1,Alex
1557348298,24dc9da2214339cebfc181b1f6c12647,Form,14,0,comprehension,NULL,q2,15
1557348298,24dc9da2214339cebfc181b1f6c12647,Form,14,0,comprehension,NULL,_REACTION_TIME_,14171
1557348298,24dc9da2214339cebfc181b1f6c12647,Form,15,0,outro,NULL,nativeq,yes
1557348298,24dc9da2214339cebfc181b1f6c12647,Form,15,0,outro,NULL,_REACTION_TIME_,8237
#
# Results on Wednesday May 08 2019 20:45:32 UTC.
# USER AGENT: Mozilla/5.0 (Windows NT 6.1; Win64; x64) AppleWebKit/537.36 (KHTML, like Gecko) Chrome/74.0.3729.131 Safari/537.36
# Design number was non-random = 38
#
# Columns below this comment are as follows:
# 1. Time results were received.
# 2. MD5 hash of participant's IP address.
# 3. Controller name.
# 4. Item number.
# 5. Element number.
# 6. Type.
# 7. Group.
# 8. Field name.
# 9. Field value.
1557348333,c2286983b3a74f9f400d538f04badc78,Form,1,0,intro,NULL,_REACTION_TIME_,9287
1557348333,c2286983b3a74f9f400d538f04badc78,Form,4,0,single-16,1,single,9
1557348333,c2286983b3a74f9f400d538f04badc78,Form,4,0,single-16,1,both,2
1557348333,c2286983b3a74f9f400d538f04badc78,Form,4,0,single-16,1,exhaust,5
1557348333,c2286983b3a74f9f400d538f04badc78,Form,4,0,single-16,1,_REACTION_TIME_,32049
1557348333,c2286983b3a74f9f400d538f04badc78,Form,14,0,comprehension,NULL,q1,Alex
1557348333,c2286983b3a74f9f400d538f04badc78,Form,14,0,comprehension,NULL,q2,16
1557348333,c2286983b3a74f9f400d538f04badc78,Form,14,0,comprehension,NULL,_REACTION_TIME_,5810
1557348333,c2286983b3a74f9f400d538f04badc78,Form,15,0,outro,NULL,nativeq,yes
1557348333,c2286983b3a74f9f400d538f04badc78,Form,15,0,outro,NULL,_REACTION_TIME_,11986
#
# Results on Wednesday May 08 2019 20:46:21 UTC.
# USER AGENT: Mozilla/5.0 (Windows NT 6.3; Win64; x64) AppleWebKit/537.36 (KHTML, like Gecko) Chrome/73.0.3683.103 Safari/537.36
# Design number was non-random = 41
#
# Columns below this comment are as follows:
# 1. Time results were received.
# 2. MD5 hash of participant's IP address.
# 3. Controller name.
# 4. Item number.
# 5. Element number.
# 6. Type.
# 7. Group.
# 8. Field name.
# 9. Field value.
1557348381,ff1250c897024d11311b6375fc9f4f6d,Form,1,0,intro,NULL,_REACTION_TIME_,9318
1557348381,ff1250c897024d11311b6375fc9f4f6d,Form,7,0,both-18,1,single,1
1557348381,ff1250c897024d11311b6375fc9f4f6d,Form,7,0,both-18,1,both,1
1557348381,ff1250c897024d11311b6375fc9f4f6d,Form,7,0,both-18,1,exhaust,1
1557348381,ff1250c897024d11311b6375fc9f4f6d,Form,7,0,both-18,1,_REACTION_TIME_,44742
1557348381,ff1250c897024d11311b6375fc9f4f6d,Form,14,0,comprehension,NULL,q1,Alex
1557348381,ff1250c897024d11311b6375fc9f4f6d,Form,14,0,comprehension,NULL,q2,18
1557348381,ff1250c897024d11311b6375fc9f4f6d,Form,14,0,comprehension,NULL,_REACTION_TIME_,8497
1557348381,ff1250c897024d11311b6375fc9f4f6d,Form,15,0,outro,NULL,nativeq,yes
1557348381,ff1250c897024d11311b6375fc9f4f6d,Form,15,0,outro,NULL,_REACTION_TIME_,28934
#
# Results on Wednesday May 08 2019 20:46:29 UTC.
# USER AGENT: Mozilla/5.0 (Windows NT 10.0; Win64; x64) AppleWebKit/537.36 (KHTML, like Gecko) Chrome/74.0.3729.131 Safari/537.36
# Design number was non-random = 43
#
# Columns below this comment are as follows:
# 1. Time results were received.
# 2. MD5 hash of participant's IP address.
# 3. Controller name.
# 4. Item number.
# 5. Element number.
# 6. Type.
# 7. Group.
# 8. Field name.
# 9. Field value.
1557348390,581deb013a96d8406c72b0c3b64401d5,Form,1,0,intro,NULL,_REACTION_TIME_,3007
1557348390,581deb013a96d8406c72b0c3b64401d5,Form,9,0,both-20,1,single,7
1557348390,581deb013a96d8406c72b0c3b64401d5,Form,9,0,both-20,1,both,1
1557348390,581deb013a96d8406c72b0c3b64401d5,Form,9,0,both-20,1,exhaust,1
1557348390,581deb013a96d8406c72b0c3b64401d5,Form,9,0,both-20,1,_REACTION_TIME_,27412
1557348390,581deb013a96d8406c72b0c3b64401d5,Form,14,0,comprehension,NULL,q1,Alex
1557348390,581deb013a96d8406c72b0c3b64401d5,Form,14,0,comprehension,NULL,q2,20
1557348390,581deb013a96d8406c72b0c3b64401d5,Form,14,0,comprehension,NULL,_REACTION_TIME_,3450
1557348390,581deb013a96d8406c72b0c3b64401d5,Form,15,0,outro,NULL,nativeq,yes
1557348390,581deb013a96d8406c72b0c3b64401d5,Form,15,0,outro,NULL,_REACTION_TIME_,12266
#
# Results on Wednesday May 08 2019 20:47:06 UTC.
# USER AGENT: Mozilla/5.0 (Windows NT 10.0; Win64; x64; rv:66.0) Gecko/20100101 Firefox/66.0
# Design number was non-random = 43
#
# Columns below this comment are as follows:
# 1. Time results were received.
# 2. MD5 hash of participant's IP address.
# 3. Controller name.
# 4. Item number.
# 5. Element number.
# 6. Type.
# 7. Group.
# 8. Field name.
# 9. Field value.
1557348427,12309854685cfaf654acda39e746d580,Form,1,0,intro,NULL,_REACTION_TIME_,8898
1557348427,12309854685cfaf654acda39e746d580,Form,9,0,both-20,1,single,1
1557348427,12309854685cfaf654acda39e746d580,Form,9,0,both-20,1,both,1
1557348427,12309854685cfaf654acda39e746d580,Form,9,0,both-20,1,exhaust,1
1557348427,12309854685cfaf654acda39e746d580,Form,9,0,both-20,1,_REACTION_TIME_,37250
1557348427,12309854685cfaf654acda39e746d580,Form,14,0,comprehension,NULL,q1,Alex
1557348427,12309854685cfaf654acda39e746d580,Form,14,0,comprehension,NULL,q2,20
1557348427,12309854685cfaf654acda39e746d580,Form,14,0,comprehension,NULL,_REACTION_TIME_,6651
1557348427,12309854685cfaf654acda39e746d580,Form,15,0,outro,NULL,nativeq,yes
1557348427,12309854685cfaf654acda39e746d580,Form,15,0,outro,NULL,_REACTION_TIME_,10499
#
# Results on Wednesday May 08 2019 20:47:20 UTC.
# USER AGENT: Mozilla/5.0 (X11; CrOS x86_64 11647.154.0) AppleWebKit/537.36 (KHTML, like Gecko) Chrome/73.0.3683.114 Safari/537.36
# Design number was non-random = 44
#
# Columns below this comment are as follows:
# 1. Time results were received.
# 2. MD5 hash of participant's IP address.
# 3. Controller name.
# 4. Item number.
# 5. Element number.
# 6. Type.
# 7. Group.
# 8. Field name.
# 9. Field value.
1557348441,12897118a251c77e09fa21dd4b79c12d,Form,1,0,intro,NULL,_REACTION_TIME_,3266
1557348441,12897118a251c77e09fa21dd4b79c12d,Form,10,0,single-22,1,single,1
1557348441,12897118a251c77e09fa21dd4b79c12d,Form,10,0,single-22,1,both,2
1557348441,12897118a251c77e09fa21dd4b79c12d,Form,10,0,single-22,1,exhaust,4
1557348441,12897118a251c77e09fa21dd4b79c12d,Form,10,0,single-22,1,_REACTION_TIME_,35101
1557348441,12897118a251c77e09fa21dd4b79c12d,Form,14,0,comprehension,NULL,q1,Alex
1557348441,12897118a251c77e09fa21dd4b79c12d,Form,14,0,comprehension,NULL,q2,22
1557348441,12897118a251c77e09fa21dd4b79c12d,Form,14,0,comprehension,NULL,_REACTION_TIME_,6702
1557348441,12897118a251c77e09fa21dd4b79c12d,Form,15,0,outro,NULL,nativeq,yes
1557348441,12897118a251c77e09fa21dd4b79c12d,Form,15,0,outro,NULL,_REACTION_TIME_,12897
#
# Results on Wednesday May 08 2019 20:50:05 UTC.
# USER AGENT: Mozilla/5.0 (Windows NT 10.0; Win64; x64) AppleWebKit/537.36 (KHTML, like Gecko) Chrome/74.0.3729.131 Safari/537.36
# Design number was non-random = 47
#
# Columns below this comment are as follows:
# 1. Time results were received.
# 2. MD5 hash of participant's IP address.
# 3. Controller name.
# 4. Item number.
# 5. Element number.
# 6. Type.
# 7. Group.
# 8. Field name.
# 9. Field value.
1557348606,1a5a1a77e397a39d52255527514772e5,Form,1,0,intro,NULL,_REACTION_TIME_,6785
1557348606,1a5a1a77e397a39d52255527514772e5,Form,13,0,both-24,1,single,1
1557348606,1a5a1a77e397a39d52255527514772e5,Form,13,0,both-24,1,both,1
1557348606,1a5a1a77e397a39d52255527514772e5,Form,13,0,both-24,1,exhaust,1
1557348606,1a5a1a77e397a39d52255527514772e5,Form,13,0,both-24,1,_REACTION_TIME_,33266
1557348606,1a5a1a77e397a39d52255527514772e5,Form,14,0,comprehension,NULL,q1,Alex
1557348606,1a5a1a77e397a39d52255527514772e5,Form,14,0,comprehension,NULL,q2,24
1557348606,1a5a1a77e397a39d52255527514772e5,Form,14,0,comprehension,NULL,_REACTION_TIME_,4952
1557348606,1a5a1a77e397a39d52255527514772e5,Form,15,0,outro,NULL,nativeq,yes
1557348606,1a5a1a77e397a39d52255527514772e5,Form,15,0,outro,NULL,_REACTION_TIME_,16038
#
# Results on Wednesday May 08 2019 20:51:03 UTC.
# USER AGENT: Mozilla/5.0 (Macintosh; Intel Mac OS X 10_14_4) AppleWebKit/537.36 (KHTML, like Gecko) Chrome/74.0.3729.131 Safari/537.36
# Design number was non-random = 48
#
# Columns below this comment are as follows:
# 1. Time results were received.
# 2. MD5 hash of participant's IP address.
# 3. Controller name.
# 4. Item number.
# 5. Element number.
# 6. Type.
# 7. Group.
# 8. Field name.
# 9. Field value.
1557348664,0dca0d8f20a9c9cbc583eec33d220bf2,Form,1,0,intro,NULL,_REACTION_TIME_,2427
1557348664,0dca0d8f20a9c9cbc583eec33d220bf2,Form,2,0,single-15,1,single,5
1557348664,0dca0d8f20a9c9cbc583eec33d220bf2,Form,2,0,single-15,1,both,9
1557348664,0dca0d8f20a9c9cbc583eec33d220bf2,Form,2,0,single-15,1,exhaust,5
1557348664,0dca0d8f20a9c9cbc583eec33d220bf2,Form,2,0,single-15,1,_REACTION_TIME_,21003
1557348664,0dca0d8f20a9c9cbc583eec33d220bf2,Form,14,0,comprehension,NULL,q1,Alex
1557348664,0dca0d8f20a9c9cbc583eec33d220bf2,Form,14,0,comprehension,NULL,q2,15
1557348664,0dca0d8f20a9c9cbc583eec33d220bf2,Form,14,0,comprehension,NULL,_REACTION_TIME_,3468
1557348664,0dca0d8f20a9c9cbc583eec33d220bf2,Form,15,0,outro,NULL,nativeq,no
1557348664,0dca0d8f20a9c9cbc583eec33d220bf2,Form,15,0,outro,NULL,_REACTION_TIME_,6331
#
# Results on Wednesday May 08 2019 20:52:34 UTC.
# USER AGENT: Mozilla/5.0 (Windows NT 10.0; Win64; x64) AppleWebKit/537.36 (KHTML, like Gecko) Chrome/64.0.3282.140 Safari/537.36 Edge/18.17763
# Design number was non-random = 48
#
# Columns below this comment are as follows:
# 1. Time results were received.
# 2. MD5 hash of participant's IP address.
# 3. Controller name.
# 4. Item number.
# 5. Element number.
# 6. Type.
# 7. Group.
# 8. Field name.
# 9. Field value.
1557348754,553867e411d5694aee51132125e24631,Form,1,0,intro,NULL,_REACTION_TIME_,31517
1557348754,553867e411d5694aee51132125e24631,Form,2,0,single-15,1,single,1
1557348754,553867e411d5694aee51132125e24631,Form,2,0,single-15,1,“both”,1
1557348754,553867e411d5694aee51132125e24631,Form,2,0,single-15,1,exhaust,1
1557348754,553867e411d5694aee51132125e24631,Form,2,0,single-15,1,_REACTION_TIME_,67893
1557348754,553867e411d5694aee51132125e24631,Form,14,0,comprehension,NULL,q1,Alex
1557348754,553867e411d5694aee51132125e24631,Form,14,0,comprehension,NULL,q2,15
1557348754,553867e411d5694aee51132125e24631,Form,14,0,comprehension,NULL,_REACTION_TIME_,14801
1557348754,553867e411d5694aee51132125e24631,Form,15,0,outro,NULL,nativeq,yes
1557348754,553867e411d5694aee51132125e24631,Form,15,0,outro,NULL,_REACTION_TIME_,20901
#
# Results on Wednesday May 08 2019 20:53:55 UTC.
# USER AGENT: Mozilla/5.0 (Windows NT 10.0; Win64; x64) AppleWebKit/537.36 (KHTML, like Gecko) Chrome/74.0.3729.131 Safari/537.36
# Design number was non-random = 50
#
# Columns below this comment are as follows:
# 1. Time results were received.
# 2. MD5 hash of participant's IP address.
# 3. Controller name.
# 4. Item number.
# 5. Element number.
# 6. Type.
# 7. Group.
# 8. Field name.
# 9. Field value.
1557348836,9c80e1fff5657980abeaf4621a76ee42,Form,1,0,intro,NULL,_REACTION_TIME_,1239
1557348836,9c80e1fff5657980abeaf4621a76ee42,Form,4,0,single-16,1,single,7
1557348836,9c80e1fff5657980abeaf4621a76ee42,Form,4,0,single-16,1,both,7
1557348836,9c80e1fff5657980abeaf4621a76ee42,Form,4,0,single-16,1,exhaust,7
1557348836,9c80e1fff5657980abeaf4621a76ee42,Form,4,0,single-16,1,_REACTION_TIME_,15832
1557348836,9c80e1fff5657980abeaf4621a76ee42,Form,14,0,comprehension,NULL,q1,Alex
1557348836,9c80e1fff5657980abeaf4621a76ee42,Form,14,0,comprehension,NULL,q2,15
1557348836,9c80e1fff5657980abeaf4621a76ee42,Form,14,0,comprehension,NULL,_REACTION_TIME_,8542
1557348836,9c80e1fff5657980abeaf4621a76ee42,Form,15,0,outro,NULL,nativeq,yes
1557348836,9c80e1fff5657980abeaf4621a76ee42,Form,15,0,outro,NULL,_REACTION_TIME_,15592
#
# Results on Wednesday May 08 2019 20:54:11 UTC.
# USER AGENT: Mozilla/5.0 (Windows NT 6.1; Win64; x64) AppleWebKit/537.36 (KHTML, like Gecko) Chrome/74.0.3729.131 Safari/537.36
# Design number was non-random = 50
#
# Columns below this comment are as follows:
# 1. Time results were received.
# 2. MD5 hash of participant's IP address.
# 3. Controller name.
# 4. Item number.
# 5. Element number.
# 6. Type.
# 7. Group.
# 8. Field name.
# 9. Field value.
1557348852,178d65fb5720277c72a39533fbd13bed,Form,1,0,intro,NULL,_REACTION_TIME_,7704
1557348852,178d65fb5720277c72a39533fbd13bed,Form,4,0,single-16,1,single,6
1557348852,178d65fb5720277c72a39533fbd13bed,Form,4,0,single-16,1,“both”,1
1557348852,178d65fb5720277c72a39533fbd13bed,Form,4,0,single-16,1,exhaust,1
1557348852,178d65fb5720277c72a39533fbd13bed,Form,4,0,single-16,1,_REACTION_TIME_,43957
1557348852,178d65fb5720277c72a39533fbd13bed,Form,14,0,comprehension,NULL,q1,Alex
1557348852,178d65fb5720277c72a39533fbd13bed,Form,14,0,comprehension,NULL,q2,16
1557348852,178d65fb5720277c72a39533fbd13bed,Form,14,0,comprehension,NULL,_REACTION_TIME_,13555
1557348852,178d65fb5720277c72a39533fbd13bed,Form,15,0,outro,NULL,nativeq,yes
1557348852,178d65fb5720277c72a39533fbd13bed,Form,15,0,outro,NULL,_REACTION_TIME_,18816
#
# Results on Wednesday May 08 2019 20:58:09 UTC.
# USER AGENT: Mozilla/5.0 (Windows NT 6.1; Win64; x64) AppleWebKit/537.36 (KHTML, like Gecko) Chrome/74.0.3729.131 Safari/537.36
# Design number was non-random = 52
#
# Columns below this comment are as follows:
# 1. Time results were received.
# 2. MD5 hash of participant's IP address.
# 3. Controller name.
# 4. Item number.
# 5. Element number.
# 6. Type.
# 7. Group.
# 8. Field name.
# 9. Field value.
1557349090,1635f0cbbc0d5cbeea6db0ffa377f8b8,Form,1,0,intro,NULL,_REACTION_TIME_,7966
1557349090,1635f0cbbc0d5cbeea6db0ffa377f8b8,Form,6,0,single-18,1,single,1
1557349090,1635f0cbbc0d5cbeea6db0ffa377f8b8,Form,6,0,single-18,1,“both”,1
1557349090,1635f0cbbc0d5cbeea6db0ffa377f8b8,Form,6,0,single-18,1,exhaust,1
1557349090,1635f0cbbc0d5cbeea6db0ffa377f8b8,Form,6,0,single-18,1,_REACTION_TIME_,91778
1557349090,1635f0cbbc0d5cbeea6db0ffa377f8b8,Form,14,0,comprehension,NULL,q1,Alex
1557349090,1635f0cbbc0d5cbeea6db0ffa377f8b8,Form,14,0,comprehension,NULL,q2,18
1557349090,1635f0cbbc0d5cbeea6db0ffa377f8b8,Form,14,0,comprehension,NULL,_REACTION_TIME_,8816
1557349090,1635f0cbbc0d5cbeea6db0ffa377f8b8,Form,15,0,outro,NULL,nativeq,yes
1557349090,1635f0cbbc0d5cbeea6db0ffa377f8b8,Form,15,0,outro,NULL,_REACTION_TIME_,28315
#
# Results on Wednesday May 08 2019 20:59:06 UTC.
# USER AGENT: Mozilla/5.0 (Windows NT 10.0; WOW64; Trident/7.0; rv:11.0) like Gecko
# Design number was non-random = 52
#
# Columns below this comment are as follows:
# 1. Time results were received.
# 2. MD5 hash of participant's IP address.
# 3. Controller name.
# 4. Item number.
# 5. Element number.
# 6. Type.
# 7. Group.
# 8. Field name.
# 9. Field value.
1557349147,d408daf5a7d1b9cf3da63512fee89063,Form,1,0,intro,NULL,_REACTION_TIME_,13284
1557349147,d408daf5a7d1b9cf3da63512fee89063,Form,6,0,single-18,1,single,1
1557349147,d408daf5a7d1b9cf3da63512fee89063,Form,6,0,single-18,1,“both”,1
1557349147,d408daf5a7d1b9cf3da63512fee89063,Form,6,0,single-18,1,exhaust,1
1557349147,d408daf5a7d1b9cf3da63512fee89063,Form,6,0,single-18,1,_REACTION_TIME_,36589
1557349147,d408daf5a7d1b9cf3da63512fee89063,Form,14,0,comprehension,NULL,q1,Alex
1557349147,d408daf5a7d1b9cf3da63512fee89063,Form,14,0,comprehension,NULL,q2,18
1557349147,d408daf5a7d1b9cf3da63512fee89063,Form,14,0,comprehension,NULL,_REACTION_TIME_,15388
1557349147,d408daf5a7d1b9cf3da63512fee89063,Form,15,0,outro,NULL,nativeq,yes
1557349147,d408daf5a7d1b9cf3da63512fee89063,Form,15,0,outro,NULL,_REACTION_TIME_,12530
#
# Results on Wednesday May 08 2019 21:05:30 UTC.
# USER AGENT: Mozilla/5.0 (Windows NT 10.0; Win64; x64) AppleWebKit/537.36 (KHTML, like Gecko) Chrome/64.0.3282.140 Safari/537.36 Edge/18.17763
# Design number was non-random = 54
#
# Columns below this comment are as follows:
# 1. Time results were received.
# 2. MD5 hash of participant's IP address.
# 3. Controller name.
# 4. Item number.
# 5. Element number.
# 6. Type.
# 7. Group.
# 8. Field name.
# 9. Field value.
1557349530,0547b08310b643c6123f95c264154287,Form,1,0,intro,NULL,_REACTION_TIME_,5499
1557349530,0547b08310b643c6123f95c264154287,Form,8,0,single-20,1,single,9
1557349530,0547b08310b643c6123f95c264154287,Form,8,0,single-20,1,“both”,1
1557349530,0547b08310b643c6123f95c264154287,Form,8,0,single-20,1,exhaust,1
1557349530,0547b08310b643c6123f95c264154287,Form,8,0,single-20,1,_REACTION_TIME_,60823
1557349530,0547b08310b643c6123f95c264154287,Form,14,0,comprehension,NULL,q1,Alex
1557349530,0547b08310b643c6123f95c264154287,Form,14,0,comprehension,NULL,q2,20
1557349530,0547b08310b643c6123f95c264154287,Form,14,0,comprehension,NULL,_REACTION_TIME_,11344
1557349530,0547b08310b643c6123f95c264154287,Form,15,0,outro,NULL,nativeq,yes
1557349530,0547b08310b643c6123f95c264154287,Form,15,0,outro,NULL,_REACTION_TIME_,8706
#
# Results on Wednesday May 08 2019 21:11:09 UTC.
# USER AGENT: Mozilla/5.0 (Windows NT 10.0; Win64; x64) AppleWebKit/537.36 (KHTML, like Gecko) Chrome/74.0.3729.131 Safari/537.36
# Design number was non-random = 55
#
# Columns below this comment are as follows:
# 1. Time results were received.
# 2. MD5 hash of participant's IP address.
# 3. Controller name.
# 4. Item number.
# 5. Element number.
# 6. Type.
# 7. Group.
# 8. Field name.
# 9. Field value.
1557349870,c3fb6fd894943f3df800d3de5ac7bc9f,Form,1,0,intro,NULL,_REACTION_TIME_,10317
1557349870,c3fb6fd894943f3df800d3de5ac7bc9f,Form,9,0,both-20,1,single,1
1557349870,c3fb6fd894943f3df800d3de5ac7bc9f,Form,9,0,both-20,1,both,1
1557349870,c3fb6fd894943f3df800d3de5ac7bc9f,Form,9,0,both-20,1,exhaust,1
1557349870,c3fb6fd894943f3df800d3de5ac7bc9f,Form,9,0,both-20,1,_REACTION_TIME_,42568
1557349870,c3fb6fd894943f3df800d3de5ac7bc9f,Form,14,0,comprehension,NULL,q1,Alex
1557349870,c3fb6fd894943f3df800d3de5ac7bc9f,Form,14,0,comprehension,NULL,q2,20
1557349870,c3fb6fd894943f3df800d3de5ac7bc9f,Form,14,0,comprehension,NULL,_REACTION_TIME_,8627
1557349870,c3fb6fd894943f3df800d3de5ac7bc9f,Form,15,0,outro,NULL,nativeq,yes
1557349870,c3fb6fd894943f3df800d3de5ac7bc9f,Form,15,0,outro,NULL,_REACTION_TIME_,16592
#
# Results on Wednesday May 08 2019 21:11:49 UTC.
# USER AGENT: Mozilla/5.0 (Windows NT 10.0; Win64; x64) AppleWebKit/537.36 (KHTML, like Gecko) Chrome/74.0.3729.131 Safari/537.36
# Design number was non-random = 55
#
# Columns below this comment are as follows:
# 1. Time results were received.
# 2. MD5 hash of participant's IP address.
# 3. Controller name.
# 4. Item number.
# 5. Element number.
# 6. Type.
# 7. Group.
# 8. Field name.
# 9. Field value.
1557349909,285d8bcab42bc97b4aa43a4a070dd5a6,Form,1,0,intro,NULL,_REACTION_TIME_,13441
1557349909,285d8bcab42bc97b4aa43a4a070dd5a6,Form,9,0,both-20,1,single,1
1557349909,285d8bcab42bc97b4aa43a4a070dd5a6,Form,9,0,both-20,1,both,1
1557349909,285d8bcab42bc97b4aa43a4a070dd5a6,Form,9,0,both-20,1,exhaust,1
1557349909,285d8bcab42bc97b4aa43a4a070dd5a6,Form,9,0,both-20,1,_REACTION_TIME_,89098
1557349909,285d8bcab42bc97b4aa43a4a070dd5a6,Form,14,0,comprehension,NULL,q1,Alex
1557349909,285d8bcab42bc97b4aa43a4a070dd5a6,Form,14,0,comprehension,NULL,q2,20
1557349909,285d8bcab42bc97b4aa43a4a070dd5a6,Form,14,0,comprehension,NULL,_REACTION_TIME_,7803
1557349909,285d8bcab42bc97b4aa43a4a070dd5a6,Form,15,0,outro,NULL,nativeq,yes
1557349909,285d8bcab42bc97b4aa43a4a070dd5a6,Form,15,0,outro,NULL,_REACTION_TIME_,51751
#
# Results on Wednesday May 08 2019 21:15:21 UTC.
# USER AGENT: Mozilla/5.0 (Macintosh; Intel Mac OS X 10_9_5) AppleWebKit/537.36 (KHTML, like Gecko) Chrome/65.0.3325.181 Safari/537.36
# Design number was non-random = 57
#
# Columns below this comment are as follows:
# 1. Time results were received.
# 2. MD5 hash of participant's IP address.
# 3. Controller name.
# 4. Item number.
# 5. Element number.
# 6. Type.
# 7. Group.
# 8. Field name.
# 9. Field value.
1557350122,36bae21b7df2a87bb9d76638046ec146,Form,1,0,intro,NULL,_REACTION_TIME_,2104
1557350122,36bae21b7df2a87bb9d76638046ec146,Form,11,0,both-22,1,single,1
1557350122,36bae21b7df2a87bb9d76638046ec146,Form,11,0,both-22,1,both,1
1557350122,36bae21b7df2a87bb9d76638046ec146,Form,11,0,both-22,1,exhaust,1
1557350122,36bae21b7df2a87bb9d76638046ec146,Form,11,0,both-22,1,_REACTION_TIME_,30395
1557350122,36bae21b7df2a87bb9d76638046ec146,Form,14,0,comprehension,NULL,q1,Alex
1557350122,36bae21b7df2a87bb9d76638046ec146,Form,14,0,comprehension,NULL,q2,22
1557350122,36bae21b7df2a87bb9d76638046ec146,Form,14,0,comprehension,NULL,_REACTION_TIME_,6904
1557350122,36bae21b7df2a87bb9d76638046ec146,Form,15,0,outro,NULL,nativeq,yes
1557350122,36bae21b7df2a87bb9d76638046ec146,Form,15,0,outro,NULL,_REACTION_TIME_,6355
#
# Results on Wednesday May 08 2019 21:15:30 UTC.
# USER AGENT: Mozilla/5.0 (Windows NT 10.0; Win64; x64) AppleWebKit/537.36 (KHTML, like Gecko) Chrome/74.0.3729.131 Safari/537.36
# Design number was non-random = 57
#
# Columns below this comment are as follows:
# 1. Time results were received.
# 2. MD5 hash of participant's IP address.
# 3. Controller name.
# 4. Item number.
# 5. Element number.
# 6. Type.
# 7. Group.
# 8. Field name.
# 9. Field value.
1557350130,284a07407447d3815a5528dd22f1698f,Form,1,0,intro,NULL,_REACTION_TIME_,3244
1557350130,284a07407447d3815a5528dd22f1698f,Form,11,0,both-22,1,single,3
1557350130,284a07407447d3815a5528dd22f1698f,Form,11,0,both-22,1,both,1
1557350130,284a07407447d3815a5528dd22f1698f,Form,11,0,both-22,1,exhaust,4
1557350130,284a07407447d3815a5528dd22f1698f,Form,11,0,both-22,1,_REACTION_TIME_,31938
1557350130,284a07407447d3815a5528dd22f1698f,Form,14,0,comprehension,NULL,q1,Alex
1557350130,284a07407447d3815a5528dd22f1698f,Form,14,0,comprehension,NULL,q2,22
1557350130,284a07407447d3815a5528dd22f1698f,Form,14,0,comprehension,NULL,_REACTION_TIME_,8632
1557350130,284a07407447d3815a5528dd22f1698f,Form,15,0,outro,NULL,nativeq,yes
1557350130,284a07407447d3815a5528dd22f1698f,Form,15,0,outro,NULL,_REACTION_TIME_,10199
#
# Results on Wednesday May 08 2019 21:16:59 UTC.
# USER AGENT: Mozilla/5.0 (Windows NT 10.0; Win64; x64) AppleWebKit/537.36 (KHTML, like Gecko) Chrome/74.0.3729.131 Safari/537.36
# Design number was non-random = 59
#
# Columns below this comment are as follows:
# 1. Time results were received.
# 2. MD5 hash of participant's IP address.
# 3. Controller name.
# 4. Item number.
# 5. Element number.
# 6. Type.
# 7. Group.
# 8. Field name.
# 9. Field value.
1557350219,cbba717e7fc9161c6b64a96366b3dc76,Form,1,0,intro,NULL,_REACTION_TIME_,2874
1557350219,cbba717e7fc9161c6b64a96366b3dc76,Form,13,0,both-24,1,single,1
1557350219,cbba717e7fc9161c6b64a96366b3dc76,Form,13,0,both-24,1,both,1
1557350219,cbba717e7fc9161c6b64a96366b3dc76,Form,13,0,both-24,1,exhaust,1
1557350219,cbba717e7fc9161c6b64a96366b3dc76,Form,13,0,both-24,1,_REACTION_TIME_,27503
1557350219,cbba717e7fc9161c6b64a96366b3dc76,Form,14,0,comprehension,NULL,q1,Alex
1557350219,cbba717e7fc9161c6b64a96366b3dc76,Form,14,0,comprehension,NULL,q2,24
1557350219,cbba717e7fc9161c6b64a96366b3dc76,Form,14,0,comprehension,NULL,_REACTION_TIME_,8915
1557350219,cbba717e7fc9161c6b64a96366b3dc76,Form,15,0,outro,NULL,nativeq,yes
1557350219,cbba717e7fc9161c6b64a96366b3dc76,Form,15,0,outro,NULL,_REACTION_TIME_,12660
#
# Results on Wednesday May 08 2019 21:17:27 UTC.
# USER AGENT: Mozilla/5.0 (Windows NT 10.0; Win64; x64) AppleWebKit/537.36 (KHTML, like Gecko) Chrome/73.0.3683.103 Safari/537.36
# Design number was non-random = 59
#
# Columns below this comment are as follows:
# 1. Time results were received.
# 2. MD5 hash of participant's IP address.
# 3. Controller name.
# 4. Item number.
# 5. Element number.
# 6. Type.
# 7. Group.
# 8. Field name.
# 9. Field value.
1557350247,48c00b22c1903ae6ec8843c894c54ffc,Form,1,0,intro,NULL,_REACTION_TIME_,10747
1557350247,48c00b22c1903ae6ec8843c894c54ffc,Form,13,0,both-24,1,single,5
1557350247,48c00b22c1903ae6ec8843c894c54ffc,Form,13,0,both-24,1,both,8
1557350247,48c00b22c1903ae6ec8843c894c54ffc,Form,13,0,both-24,1,exhaust,1
1557350247,48c00b22c1903ae6ec8843c894c54ffc,Form,13,0,both-24,1,_REACTION_TIME_,40754
1557350247,48c00b22c1903ae6ec8843c894c54ffc,Form,14,0,comprehension,NULL,q1,Alex
1557350247,48c00b22c1903ae6ec8843c894c54ffc,Form,14,0,comprehension,NULL,q2,24
1557350247,48c00b22c1903ae6ec8843c894c54ffc,Form,14,0,comprehension,NULL,_REACTION_TIME_,6035
1557350247,48c00b22c1903ae6ec8843c894c54ffc,Form,15,0,outro,NULL,nativeq,yes
1557350247,48c00b22c1903ae6ec8843c894c54ffc,Form,15,0,outro,NULL,_REACTION_TIME_,6414
#
# Results on Wednesday May 08 2019 21:17:40 UTC.
# USER AGENT: Mozilla/5.0 (Macintosh; Intel Mac OS X 10_13_6) AppleWebKit/537.36 (KHTML, like Gecko) Chrome/72.0.3626.121 Safari/537.36
# Design number was non-random = 59
#
# Columns below this comment are as follows:
# 1. Time results were received.
# 2. MD5 hash of participant's IP address.
# 3. Controller name.
# 4. Item number.
# 5. Element number.
# 6. Type.
# 7. Group.
# 8. Field name.
# 9. Field value.
1557350261,4c6d4dc0cae9871f8475ab72faf70bd8,Form,1,0,intro,NULL,_REACTION_TIME_,1676
1557350261,4c6d4dc0cae9871f8475ab72faf70bd8,Form,13,0,both-24,1,single,2
1557350261,4c6d4dc0cae9871f8475ab72faf70bd8,Form,13,0,both-24,1,both,1
1557350261,4c6d4dc0cae9871f8475ab72faf70bd8,Form,13,0,both-24,1,exhaust,1
1557350261,4c6d4dc0cae9871f8475ab72faf70bd8,Form,13,0,both-24,1,_REACTION_TIME_,30568
1557350261,4c6d4dc0cae9871f8475ab72faf70bd8,Form,14,0,comprehension,NULL,q1,Alex
1557350261,4c6d4dc0cae9871f8475ab72faf70bd8,Form,14,0,comprehension,NULL,q2,24
1557350261,4c6d4dc0cae9871f8475ab72faf70bd8,Form,14,0,comprehension,NULL,_REACTION_TIME_,6900
1557350261,4c6d4dc0cae9871f8475ab72faf70bd8,Form,15,0,outro,NULL,nativeq,yes
1557350261,4c6d4dc0cae9871f8475ab72faf70bd8,Form,15,0,outro,NULL,_REACTION_TIME_,4104
#
# Results on Wednesday May 08 2019 21:17:53 UTC.
# USER AGENT: Mozilla/5.0 (Windows NT 6.3; Win64; x64) AppleWebKit/537.36 (KHTML, like Gecko) Chrome/74.0.3729.131 Safari/537.36
# Design number was non-random = 60
#
# Columns below this comment are as follows:
# 1. Time results were received.
# 2. MD5 hash of participant's IP address.
# 3. Controller name.
# 4. Item number.
# 5. Element number.
# 6. Type.
# 7. Group.
# 8. Field name.
# 9. Field value.
1557350273,472f0f33e0b373d77b8f32316cdf439f,Form,1,0,intro,NULL,_REACTION_TIME_,1655
1557350273,472f0f33e0b373d77b8f32316cdf439f,Form,2,0,single-15,1,single,1
1557350273,472f0f33e0b373d77b8f32316cdf439f,Form,2,0,single-15,1,“both”,1
1557350273,472f0f33e0b373d77b8f32316cdf439f,Form,2,0,single-15,1,exhaust,1
1557350273,472f0f33e0b373d77b8f32316cdf439f,Form,2,0,single-15,1,_REACTION_TIME_,20639
1557350273,472f0f33e0b373d77b8f32316cdf439f,Form,14,0,comprehension,NULL,q1,Alex
1557350273,472f0f33e0b373d77b8f32316cdf439f,Form,14,0,comprehension,NULL,q2,15
1557350273,472f0f33e0b373d77b8f32316cdf439f,Form,14,0,comprehension,NULL,_REACTION_TIME_,5786
1557350273,472f0f33e0b373d77b8f32316cdf439f,Form,15,0,outro,NULL,nativeq,yes
1557350273,472f0f33e0b373d77b8f32316cdf439f,Form,15,0,outro,NULL,_REACTION_TIME_,6104
#
# Results on Wednesday May 08 2019 21:18:08 UTC.
# USER AGENT: Mozilla/5.0 (Linux; Android 8.1.0; SM-T378V) AppleWebKit/537.36 (KHTML, like Gecko) Chrome/74.0.3729.112 Safari/537.36
# Design number was non-random = 59
#
# Columns below this comment are as follows:
# 1. Time results were received.
# 2. MD5 hash of participant's IP address.
# 3. Controller name.
# 4. Item number.
# 5. Element number.
# 6. Type.
# 7. Group.
# 8. Field name.
# 9. Field value.
1557350289,48075662c550744a1a8a16e17ccf896d,Form,1,0,intro,NULL,_REACTION_TIME_,3466
1557350289,48075662c550744a1a8a16e17ccf896d,Form,13,0,both-24,1,single,1
1557350289,48075662c550744a1a8a16e17ccf896d,Form,13,0,both-24,1,both,1
1557350289,48075662c550744a1a8a16e17ccf896d,Form,13,0,both-24,1,exhaust,1
1557350289,48075662c550744a1a8a16e17ccf896d,Form,13,0,both-24,1,_REACTION_TIME_,46602
1557350289,48075662c550744a1a8a16e17ccf896d,Form,14,0,comprehension,NULL,q1,Alex
1557350289,48075662c550744a1a8a16e17ccf896d,Form,14,0,comprehension,NULL,q2,24
1557350289,48075662c550744a1a8a16e17ccf896d,Form,14,0,comprehension,NULL,_REACTION_TIME_,6028
1557350289,48075662c550744a1a8a16e17ccf896d,Form,15,0,outro,NULL,nativeq,yes
1557350289,48075662c550744a1a8a16e17ccf896d,Form,15,0,outro,NULL,_REACTION_TIME_,18752
#
# Results on Wednesday May 08 2019 21:18:32 UTC.
# USER AGENT: Mozilla/5.0 (X11; Linux i686) AppleWebKit/537.36 (KHTML, like Gecko) Ubuntu Chromium/65.0.3325.181 Chrome/65.0.3325.181 Safari/537.36
# Design number was non-random = 61
#
# Columns below this comment are as follows:
# 1. Time results were received.
# 2. MD5 hash of participant's IP address.
# 3. Controller name.
# 4. Item number.
# 5. Element number.
# 6. Type.
# 7. Group.
# 8. Field name.
# 9. Field value.
1557350312,e27c51133151d8cb875d95b696c1f830,Form,1,0,intro,NULL,_REACTION_TIME_,7003
1557350312,e27c51133151d8cb875d95b696c1f830,Form,3,0,both-15,1,single,3
1557350312,e27c51133151d8cb875d95b696c1f830,Form,3,0,both-15,1,both,1
1557350312,e27c51133151d8cb875d95b696c1f830,Form,3,0,both-15,1,exhaust,1
1557350312,e27c51133151d8cb875d95b696c1f830,Form,3,0,both-15,1,_REACTION_TIME_,25178
1557350312,e27c51133151d8cb875d95b696c1f830,Form,14,0,comprehension,NULL,q1,Alex
1557350312,e27c51133151d8cb875d95b696c1f830,Form,14,0,comprehension,NULL,q2,15
1557350312,e27c51133151d8cb875d95b696c1f830,Form,14,0,comprehension,NULL,_REACTION_TIME_,5150
1557350312,e27c51133151d8cb875d95b696c1f830,Form,15,0,outro,NULL,nativeq,yes
1557350312,e27c51133151d8cb875d95b696c1f830,Form,15,0,outro,NULL,_REACTION_TIME_,16550
#
# Results on Wednesday May 08 2019 21:20:39 UTC.
# USER AGENT: Mozilla/5.0 (Windows NT 10.0; Win64; x64) AppleWebKit/537.36 (KHTML, like Gecko) Chrome/74.0.3729.131 Safari/537.36
# Design number was non-random = 65
#
# Columns below this comment are as follows:
# 1. Time results were received.
# 2. MD5 hash of participant's IP address.
# 3. Controller name.
# 4. Item number.
# 5. Element number.
# 6. Type.
# 7. Group.
# 8. Field name.
# 9. Field value.
1557350440,42fde1e11a56de954ab0c801f4991eaf,Form,1,0,intro,NULL,_REACTION_TIME_,15067
1557350440,42fde1e11a56de954ab0c801f4991eaf,Form,7,0,both-18,1,single,5
1557350440,42fde1e11a56de954ab0c801f4991eaf,Form,7,0,both-18,1,both,1
1557350440,42fde1e11a56de954ab0c801f4991eaf,Form,7,0,both-18,1,exhaust,1
1557350440,42fde1e11a56de954ab0c801f4991eaf,Form,7,0,both-18,1,_REACTION_TIME_,50009
1557350440,42fde1e11a56de954ab0c801f4991eaf,Form,14,0,comprehension,NULL,q1,Alex
1557350440,42fde1e11a56de954ab0c801f4991eaf,Form,14,0,comprehension,NULL,q2,18
1557350440,42fde1e11a56de954ab0c801f4991eaf,Form,14,0,comprehension,NULL,_REACTION_TIME_,6852
1557350440,42fde1e11a56de954ab0c801f4991eaf,Form,15,0,outro,NULL,nativeq,yes
1557350440,42fde1e11a56de954ab0c801f4991eaf,Form,15,0,outro,NULL,_REACTION_TIME_,6770
#
# Results on Wednesday May 08 2019 21:30:44 UTC.
# USER AGENT: Mozilla/5.0 (Macintosh; Intel Mac OS X 10_14_2) AppleWebKit/537.36 (KHTML, like Gecko) Chrome/74.0.3729.131 Safari/537.36
# Design number was non-random = 66
#
# Columns below this comment are as follows:
# 1. Time results were received.
# 2. MD5 hash of participant's IP address.
# 3. Controller name.
# 4. Item number.
# 5. Element number.
# 6. Type.
# 7. Group.
# 8. Field name.
# 9. Field value.
1557351045,b74cb624388245545d6aba8be4d37db4,Form,1,0,intro,NULL,_REACTION_TIME_,9775
1557351045,b74cb624388245545d6aba8be4d37db4,Form,8,0,single-20,1,single,9
1557351045,b74cb624388245545d6aba8be4d37db4,Form,8,0,single-20,1,both,3
1557351045,b74cb624388245545d6aba8be4d37db4,Form,8,0,single-20,1,exhaust,6
1557351045,b74cb624388245545d6aba8be4d37db4,Form,8,0,single-20,1,_REACTION_TIME_,55843
1557351045,b74cb624388245545d6aba8be4d37db4,Form,14,0,comprehension,NULL,q1,Alex
1557351045,b74cb624388245545d6aba8be4d37db4,Form,14,0,comprehension,NULL,q2,20
1557351045,b74cb624388245545d6aba8be4d37db4,Form,14,0,comprehension,NULL,_REACTION_TIME_,24764
1557351045,b74cb624388245545d6aba8be4d37db4,Form,15,0,outro,NULL,nativeq,yes
1557351045,b74cb624388245545d6aba8be4d37db4,Form,15,0,outro,NULL,_REACTION_TIME_,11401
#
# Results on Wednesday May 08 2019 21:35:16 UTC.
# USER AGENT: Mozilla/5.0 (Macintosh; Intel Mac OS X 10.12; rv:68.0) Gecko/20100101 Firefox/68.0
# Design number was non-random = 67
#
# Columns below this comment are as follows:
# 1. Time results were received.
# 2. MD5 hash of participant's IP address.
# 3. Controller name.
# 4. Item number.
# 5. Element number.
# 6. Type.
# 7. Group.
# 8. Field name.
# 9. Field value.
1557351316,882ea5dcd503f9498eff2ce44bd7c809,Form,1,0,intro,NULL,_REACTION_TIME_,4667
1557351316,882ea5dcd503f9498eff2ce44bd7c809,Form,9,0,both-20,1,single,2
1557351316,882ea5dcd503f9498eff2ce44bd7c809,Form,9,0,both-20,1,both,1
1557351316,882ea5dcd503f9498eff2ce44bd7c809,Form,9,0,both-20,1,exhaust,1
1557351316,882ea5dcd503f9498eff2ce44bd7c809,Form,9,0,both-20,1,_REACTION_TIME_,38291
1557351316,882ea5dcd503f9498eff2ce44bd7c809,Form,14,0,comprehension,NULL,q1,Alex
1557351316,882ea5dcd503f9498eff2ce44bd7c809,Form,14,0,comprehension,NULL,q2,20
1557351316,882ea5dcd503f9498eff2ce44bd7c809,Form,14,0,comprehension,NULL,_REACTION_TIME_,6627
1557351316,882ea5dcd503f9498eff2ce44bd7c809,Form,15,0,outro,NULL,nativeq,yes
1557351316,882ea5dcd503f9498eff2ce44bd7c809,Form,15,0,outro,NULL,_REACTION_TIME_,5651
#
# Results on Wednesday May 08 2019 21:36:03 UTC.
# USER AGENT: Mozilla/5.0 (Macintosh; Intel Mac OS X 10_14_4) AppleWebKit/537.36 (KHTML, like Gecko) Chrome/74.0.3729.108 Safari/537.36
# Design number was non-random = 67
#
# Columns below this comment are as follows:
# 1. Time results were received.
# 2. MD5 hash of participant's IP address.
# 3. Controller name.
# 4. Item number.
# 5. Element number.
# 6. Type.
# 7. Group.
# 8. Field name.
# 9. Field value.
1557351363,301209847358d206a32cb0db3ba40a88,Form,1,0,intro,NULL,_REACTION_TIME_,4168
1557351363,301209847358d206a32cb0db3ba40a88,Form,9,0,both-20,1,single,7
1557351363,301209847358d206a32cb0db3ba40a88,Form,9,0,both-20,1,both,9
1557351363,301209847358d206a32cb0db3ba40a88,Form,9,0,both-20,1,exhaust,2
1557351363,301209847358d206a32cb0db3ba40a88,Form,9,0,both-20,1,_REACTION_TIME_,60666
1557351363,301209847358d206a32cb0db3ba40a88,Form,14,0,comprehension,NULL,q1,Alex
1557351363,301209847358d206a32cb0db3ba40a88,Form,14,0,comprehension,NULL,q2,20
1557351363,301209847358d206a32cb0db3ba40a88,Form,14,0,comprehension,NULL,_REACTION_TIME_,15106
1557351363,301209847358d206a32cb0db3ba40a88,Form,15,0,outro,NULL,nativeq,yes
1557351363,301209847358d206a32cb0db3ba40a88,Form,15,0,outro,NULL,_REACTION_TIME_,8502
#
# Results on Wednesday May 08 2019 21:37:15 UTC.
# USER AGENT: Mozilla/5.0 (Macintosh; Intel Mac OS X 10_13_6) AppleWebKit/537.36 (KHTML, like Gecko) Chrome/73.0.3683.103 Safari/537.36
# Design number was non-random = 69
#
# Columns below this comment are as follows:
# 1. Time results were received.
# 2. MD5 hash of participant's IP address.
# 3. Controller name.
# 4. Item number.
# 5. Element number.
# 6. Type.
# 7. Group.
# 8. Field name.
# 9. Field value.
1557351436,b71bca8404af25fdeed4272df269eddd,Form,1,0,intro,NULL,_REACTION_TIME_,5118
1557351436,b71bca8404af25fdeed4272df269eddd,Form,11,0,both-22,1,single,7
1557351436,b71bca8404af25fdeed4272df269eddd,Form,11,0,both-22,1,both,1
1557351436,b71bca8404af25fdeed4272df269eddd,Form,11,0,both-22,1,exhaust,3
1557351436,b71bca8404af25fdeed4272df269eddd,Form,11,0,both-22,1,_REACTION_TIME_,37067
1557351436,b71bca8404af25fdeed4272df269eddd,Form,14,0,comprehension,NULL,q1,Alex
1557351436,b71bca8404af25fdeed4272df269eddd,Form,14,0,comprehension,NULL,q2,22
1557351436,b71bca8404af25fdeed4272df269eddd,Form,14,0,comprehension,NULL,_REACTION_TIME_,6497
1557351436,b71bca8404af25fdeed4272df269eddd,Form,15,0,outro,NULL,nativeq,yes
1557351436,b71bca8404af25fdeed4272df269eddd,Form,15,0,outro,NULL,_REACTION_TIME_,5371
#
# Results on Wednesday May 08 2019 21:42:59 UTC.
# USER AGENT: Mozilla/5.0 (Linux; Android 7.0; SM-G928V) AppleWebKit/537.36 (KHTML, like Gecko) Chrome/74.0.3729.136 Mobile Safari/537.36
# Design number was non-random = 70
#
# Columns below this comment are as follows:
# 1. Time results were received.
# 2. MD5 hash of participant's IP address.
# 3. Controller name.
# 4. Item number.
# 5. Element number.
# 6. Type.
# 7. Group.
# 8. Field name.
# 9. Field value.
1557351779,fc32344f3efd9b3a73464cd7e1ade773,Form,1,0,intro,NULL,_REACTION_TIME_,3011
1557351779,fc32344f3efd9b3a73464cd7e1ade773,Form,12,0,single-24,1,single,1
1557351779,fc32344f3efd9b3a73464cd7e1ade773,Form,12,0,single-24,1,both,1
1557351779,fc32344f3efd9b3a73464cd7e1ade773,Form,12,0,single-24,1,exhaust,2
1557351779,fc32344f3efd9b3a73464cd7e1ade773,Form,12,0,single-24,1,_REACTION_TIME_,22859
1557351779,fc32344f3efd9b3a73464cd7e1ade773,Form,14,0,comprehension,NULL,q1,Alex
1557351779,fc32344f3efd9b3a73464cd7e1ade773,Form,14,0,comprehension,NULL,q2,15
1557351779,fc32344f3efd9b3a73464cd7e1ade773,Form,14,0,comprehension,NULL,_REACTION_TIME_,8498
1557351779,fc32344f3efd9b3a73464cd7e1ade773,Form,15,0,outro,NULL,nativeq,yes
1557351779,fc32344f3efd9b3a73464cd7e1ade773,Form,15,0,outro,NULL,_REACTION_TIME_,7268
#
# Results on Wednesday May 08 2019 21:43:23 UTC.
# USER AGENT: Mozilla/5.0 (X11; CrOS x86_64 11647.154.0) AppleWebKit/537.36 (KHTML, like Gecko) Chrome/73.0.3683.114 Safari/537.36
# Design number was non-random = 70
#
# Columns below this comment are as follows:
# 1. Time results were received.
# 2. MD5 hash of participant's IP address.
# 3. Controller name.
# 4. Item number.
# 5. Element number.
# 6. Type.
# 7. Group.
# 8. Field name.
# 9. Field value.
1557351804,bac353b0eacbecaaa839fc5317ec17aa,Form,1,0,intro,NULL,_REACTION_TIME_,5369
1557351804,bac353b0eacbecaaa839fc5317ec17aa,Form,12,0,single-24,1,single,1
1557351804,bac353b0eacbecaaa839fc5317ec17aa,Form,12,0,single-24,1,“both”,1
1557351804,bac353b0eacbecaaa839fc5317ec17aa,Form,12,0,single-24,1,exhaust,3
1557351804,bac353b0eacbecaaa839fc5317ec17aa,Form,12,0,single-24,1,_REACTION_TIME_,85527
1557351804,bac353b0eacbecaaa839fc5317ec17aa,Form,14,0,comprehension,NULL,q1,Alex
1557351804,bac353b0eacbecaaa839fc5317ec17aa,Form,14,0,comprehension,NULL,q2,24
1557351804,bac353b0eacbecaaa839fc5317ec17aa,Form,14,0,comprehension,NULL,_REACTION_TIME_,11251
1557351804,bac353b0eacbecaaa839fc5317ec17aa,Form,15,0,outro,NULL,nativeq,yes
1557351804,bac353b0eacbecaaa839fc5317ec17aa,Form,15,0,outro,NULL,_REACTION_TIME_,27412
#
# Results on Wednesday May 08 2019 21:43:40 UTC.
# USER AGENT: Mozilla/5.0 (Macintosh; Intel Mac OS X 10_12_6) AppleWebKit/537.36 (KHTML, like Gecko) Chrome/74.0.3729.108 Safari/537.36
# Design number was non-random = 70
#
# Columns below this comment are as follows:
# 1. Time results were received.
# 2. MD5 hash of participant's IP address.
# 3. Controller name.
# 4. Item number.
# 5. Element number.
# 6. Type.
# 7. Group.
# 8. Field name.
# 9. Field value.
1557351821,5f15a78c0e98c693f1118aa50aaa735e,Form,1,0,intro,NULL,_REACTION_TIME_,3435
1557351821,5f15a78c0e98c693f1118aa50aaa735e,Form,12,0,single-24,1,single,1
1557351821,5f15a78c0e98c693f1118aa50aaa735e,Form,12,0,single-24,1,“both”,1
1557351821,5f15a78c0e98c693f1118aa50aaa735e,Form,12,0,single-24,1,exhaust,3
1557351821,5f15a78c0e98c693f1118aa50aaa735e,Form,12,0,single-24,1,_REACTION_TIME_,59746
1557351821,5f15a78c0e98c693f1118aa50aaa735e,Form,14,0,comprehension,NULL,q1,Alex
1557351821,5f15a78c0e98c693f1118aa50aaa735e,Form,14,0,comprehension,NULL,q2,24
1557351821,5f15a78c0e98c693f1118aa50aaa735e,Form,14,0,comprehension,NULL,_REACTION_TIME_,13264
1557351821,5f15a78c0e98c693f1118aa50aaa735e,Form,15,0,outro,NULL,nativeq,yes
1557351821,5f15a78c0e98c693f1118aa50aaa735e,Form,15,0,outro,NULL,_REACTION_TIME_,9072
#
# Results on Wednesday May 08 2019 21:45:19 UTC.
# USER AGENT: Mozilla/5.0 (Windows NT 10.0; Win64; x64) AppleWebKit/537.36 (KHTML, like Gecko) Chrome/74.0.3729.131 Safari/537.36
# Design number was non-random = 73
#
# Columns below this comment are as follows:
# 1. Time results were received.
# 2. MD5 hash of participant's IP address.
# 3. Controller name.
# 4. Item number.
# 5. Element number.
# 6. Type.
# 7. Group.
# 8. Field name.
# 9. Field value.
1557351920,1a0b375188680a0dfc31109f7ba88940,Form,1,0,intro,NULL,_REACTION_TIME_,2041
1557351920,1a0b375188680a0dfc31109f7ba88940,Form,3,0,both-15,1,both,1
1557351920,1a0b375188680a0dfc31109f7ba88940,Form,3,0,both-15,1,_REACTION_TIME_,22419
1557351920,1a0b375188680a0dfc31109f7ba88940,Form,14,0,comprehension,NULL,q1,Alex
1557351920,1a0b375188680a0dfc31109f7ba88940,Form,14,0,comprehension,NULL,q2,15
1557351920,1a0b375188680a0dfc31109f7ba88940,Form,14,0,comprehension,NULL,_REACTION_TIME_,4676
1557351920,1a0b375188680a0dfc31109f7ba88940,Form,15,0,outro,NULL,nativeq,yes
1557351920,1a0b375188680a0dfc31109f7ba88940,Form,15,0,outro,NULL,_REACTION_TIME_,5413
#
# Results on Wednesday May 08 2019 21:47:14 UTC.
# USER AGENT: Mozilla/5.0 (Macintosh; Intel Mac OS X 10_14_2) AppleWebKit/537.36 (KHTML, like Gecko) Chrome/72.0.3626.121 Safari/537.36
# Design number was non-random = 74
#
# Columns below this comment are as follows:
# 1. Time results were received.
# 2. MD5 hash of participant's IP address.
# 3. Controller name.
# 4. Item number.
# 5. Element number.
# 6. Type.
# 7. Group.
# 8. Field name.
# 9. Field value.
1557352035,6a79852041960e714f9bd3142667c3c9,Form,1,0,intro,NULL,_REACTION_TIME_,5581
1557352035,6a79852041960e714f9bd3142667c3c9,Form,4,0,single-16,1,single,1
1557352035,6a79852041960e714f9bd3142667c3c9,Form,4,0,single-16,1,“both”,1
1557352035,6a79852041960e714f9bd3142667c3c9,Form,4,0,single-16,1,exhaust,1
1557352035,6a79852041960e714f9bd3142667c3c9,Form,4,0,single-16,1,_REACTION_TIME_,40585
1557352035,6a79852041960e714f9bd3142667c3c9,Form,14,0,comprehension,NULL,q1,Alex
1557352035,6a79852041960e714f9bd3142667c3c9,Form,14,0,comprehension,NULL,q2,16
1557352035,6a79852041960e714f9bd3142667c3c9,Form,14,0,comprehension,NULL,_REACTION_TIME_,6714
1557352035,6a79852041960e714f9bd3142667c3c9,Form,15,0,outro,NULL,nativeq,yes
1557352035,6a79852041960e714f9bd3142667c3c9,Form,15,0,outro,NULL,_REACTION_TIME_,15703
#
# Results on Wednesday May 08 2019 21:48:17 UTC.
# USER AGENT: Mozilla/5.0 (Macintosh; Intel Mac OS X 10_14_2) AppleWebKit/537.36 (KHTML, like Gecko) Chrome/72.0.3626.121 Safari/537.36
# Design number was non-random = 75
#
# Columns below this comment are as follows:
# 1. Time results were received.
# 2. MD5 hash of participant's IP address.
# 3. Controller name.
# 4. Item number.
# 5. Element number.
# 6. Type.
# 7. Group.
# 8. Field name.
# 9. Field value.
1557352097,6a79852041960e714f9bd3142667c3c9,Form,1,0,intro,NULL,_REACTION_TIME_,2360
1557352097,6a79852041960e714f9bd3142667c3c9,Form,5,0,both-16,1,single,1
1557352097,6a79852041960e714f9bd3142667c3c9,Form,5,0,both-16,1,both,1
1557352097,6a79852041960e714f9bd3142667c3c9,Form,5,0,both-16,1,exhaust,1
1557352097,6a79852041960e714f9bd3142667c3c9,Form,5,0,both-16,1,_REACTION_TIME_,26209
1557352097,6a79852041960e714f9bd3142667c3c9,Form,14,0,comprehension,NULL,q1,Alex
1557352097,6a79852041960e714f9bd3142667c3c9,Form,14,0,comprehension,NULL,q2,16
1557352097,6a79852041960e714f9bd3142667c3c9,Form,14,0,comprehension,NULL,_REACTION_TIME_,3553
1557352097,6a79852041960e714f9bd3142667c3c9,Form,15,0,outro,NULL,nativeq,yes
1557352097,6a79852041960e714f9bd3142667c3c9,Form,15,0,outro,NULL,_REACTION_TIME_,8402
#
# Results on Wednesday May 08 2019 21:48:28 UTC.
# USER AGENT: Mozilla/5.0 (Windows NT 6.3; Win64; x64) AppleWebKit/537.36 (KHTML, like Gecko) Chrome/74.0.3729.131 Safari/537.36
# Design number was non-random = 75
#
# Columns below this comment are as follows:
# 1. Time results were received.
# 2. MD5 hash of participant's IP address.
# 3. Controller name.
# 4. Item number.
# 5. Element number.
# 6. Type.
# 7. Group.
# 8. Field name.
# 9. Field value.
1557352109,ba2c0b7f290dc39c5e47aad60c60d971,Form,1,0,intro,NULL,_REACTION_TIME_,6400
1557352109,ba2c0b7f290dc39c5e47aad60c60d971,Form,5,0,both-16,1,single,3
1557352109,ba2c0b7f290dc39c5e47aad60c60d971,Form,5,0,both-16,1,both,1
1557352109,ba2c0b7f290dc39c5e47aad60c60d971,Form,5,0,both-16,1,exhaust,1
1557352109,ba2c0b7f290dc39c5e47aad60c60d971,Form,5,0,both-16,1,_REACTION_TIME_,35780
1557352109,ba2c0b7f290dc39c5e47aad60c60d971,Form,14,0,comprehension,NULL,q1,Alex
1557352109,ba2c0b7f290dc39c5e47aad60c60d971,Form,14,0,comprehension,NULL,q2,16
1557352109,ba2c0b7f290dc39c5e47aad60c60d971,Form,14,0,comprehension,NULL,_REACTION_TIME_,6526
1557352109,ba2c0b7f290dc39c5e47aad60c60d971,Form,15,0,outro,NULL,nativeq,yes
1557352109,ba2c0b7f290dc39c5e47aad60c60d971,Form,15,0,outro,NULL,_REACTION_TIME_,20956
#
# Results on Wednesday May 08 2019 21:49:40 UTC.
# USER AGENT: Mozilla/5.0 (Windows NT 10.0; Win64; x64) AppleWebKit/537.36 (KHTML, like Gecko) Chrome/64.0.3282.140 Safari/537.36 Edge/18.17763
# Design number was non-random = 76
#
# Columns below this comment are as follows:
# 1. Time results were received.
# 2. MD5 hash of participant's IP address.
# 3. Controller name.
# 4. Item number.
# 5. Element number.
# 6. Type.
# 7. Group.
# 8. Field name.
# 9. Field value.
1557352180,a0d4e38ef778b1be3082147d78e49c77,Form,1,0,intro,NULL,_REACTION_TIME_,13020
1557352180,a0d4e38ef778b1be3082147d78e49c77,Form,6,0,single-18,1,single,1
1557352180,a0d4e38ef778b1be3082147d78e49c77,Form,6,0,single-18,1,“both”,1
1557352180,a0d4e38ef778b1be3082147d78e49c77,Form,6,0,single-18,1,exhaust,1
1557352180,a0d4e38ef778b1be3082147d78e49c77,Form,6,0,single-18,1,_REACTION_TIME_,36986
1557352180,a0d4e38ef778b1be3082147d78e49c77,Form,14,0,comprehension,NULL,q1,Alex
1557352180,a0d4e38ef778b1be3082147d78e49c77,Form,14,0,comprehension,NULL,q2,18
1557352180,a0d4e38ef778b1be3082147d78e49c77,Form,14,0,comprehension,NULL,_REACTION_TIME_,11114
1557352180,a0d4e38ef778b1be3082147d78e49c77,Form,15,0,outro,NULL,nativeq,yes
1557352180,a0d4e38ef778b1be3082147d78e49c77,Form,15,0,outro,NULL,_REACTION_TIME_,12882
#
# Results on Wednesday May 08 2019 21:50:34 UTC.
# USER AGENT: Mozilla/5.0 (Linux; Android 8.0.0; SM-J737T1) AppleWebKit/537.36 (KHTML, like Gecko) Chrome/74.0.3729.136 Mobile Safari/537.36
# Design number was non-random = 78
#
# Columns below this comment are as follows:
# 1. Time results were received.
# 2. MD5 hash of participant's IP address.
# 3. Controller name.
# 4. Item number.
# 5. Element number.
# 6. Type.
# 7. Group.
# 8. Field name.
# 9. Field value.
1557352235,68c3639fb100b87001f3e302c42baa1e,Form,1,0,intro,NULL,_REACTION_TIME_,2228
1557352235,68c3639fb100b87001f3e302c42baa1e,Form,8,0,single-20,1,single,1
1557352235,68c3639fb100b87001f3e302c42baa1e,Form,8,0,single-20,1,“both”,1
1557352235,68c3639fb100b87001f3e302c42baa1e,Form,8,0,single-20,1,exhaust,1
1557352235,68c3639fb100b87001f3e302c42baa1e,Form,8,0,single-20,1,_REACTION_TIME_,27531
1557352235,68c3639fb100b87001f3e302c42baa1e,Form,14,0,comprehension,NULL,q1,Alex
1557352235,68c3639fb100b87001f3e302c42baa1e,Form,14,0,comprehension,NULL,q2,15
1557352235,68c3639fb100b87001f3e302c42baa1e,Form,14,0,comprehension,NULL,_REACTION_TIME_,9632
1557352235,68c3639fb100b87001f3e302c42baa1e,Form,15,0,outro,NULL,nativeq,yes
1557352235,68c3639fb100b87001f3e302c42baa1e,Form,15,0,outro,NULL,_REACTION_TIME_,7179
#
# Results on Wednesday May 08 2019 21:52:38 UTC.
# USER AGENT: Mozilla/5.0 (X11; Ubuntu; Linux x86_64; rv:65.0) Gecko/20100101 Firefox/65.0
# Design number was non-random = 79
#
# Columns below this comment are as follows:
# 1. Time results were received.
# 2. MD5 hash of participant's IP address.
# 3. Controller name.
# 4. Item number.
# 5. Element number.
# 6. Type.
# 7. Group.
# 8. Field name.
# 9. Field value.
1557352359,5e84cabfca3d939a9870b4a9921ccafe,Form,1,0,intro,NULL,_REACTION_TIME_,1317
1557352359,5e84cabfca3d939a9870b4a9921ccafe,Form,9,0,both-20,1,single,5
1557352359,5e84cabfca3d939a9870b4a9921ccafe,Form,9,0,both-20,1,“both”,1
1557352359,5e84cabfca3d939a9870b4a9921ccafe,Form,9,0,both-20,1,both,5
1557352359,5e84cabfca3d939a9870b4a9921ccafe,Form,9,0,both-20,1,exhaust,2
1557352359,5e84cabfca3d939a9870b4a9921ccafe,Form,9,0,both-20,1,_REACTION_TIME_,16425
1557352359,5e84cabfca3d939a9870b4a9921ccafe,Form,14,0,comprehension,NULL,q1,Alex
1557352359,5e84cabfca3d939a9870b4a9921ccafe,Form,14,0,comprehension,NULL,q2,16
1557352359,5e84cabfca3d939a9870b4a9921ccafe,Form,14,0,comprehension,NULL,_REACTION_TIME_,5710
1557352359,5e84cabfca3d939a9870b4a9921ccafe,Form,15,0,outro,NULL,nativeq,yes
1557352359,5e84cabfca3d939a9870b4a9921ccafe,Form,15,0,outro,NULL,_REACTION_TIME_,5514
#
# Results on Wednesday May 08 2019 21:53:22 UTC.
# USER AGENT: Mozilla/5.0 (Windows NT 10.0; Win64; x64) AppleWebKit/537.36 (KHTML, like Gecko) Chrome/73.0.3683.103 Safari/537.36
# Design number was non-random = 79
#
# Columns below this comment are as follows:
# 1. Time results were received.
# 2. MD5 hash of participant's IP address.
# 3. Controller name.
# 4. Item number.
# 5. Element number.
# 6. Type.
# 7. Group.
# 8. Field name.
# 9. Field value.
1557352402,95318b119bfc3a479e910c55ffd34d44,Form,1,0,intro,NULL,_REACTION_TIME_,5179
1557352402,95318b119bfc3a479e910c55ffd34d44,Form,9,0,both-20,1,single,8
1557352402,95318b119bfc3a479e910c55ffd34d44,Form,9,0,both-20,1,both,1
1557352402,95318b119bfc3a479e910c55ffd34d44,Form,9,0,both-20,1,exhaust,2
1557352402,95318b119bfc3a479e910c55ffd34d44,Form,9,0,both-20,1,_REACTION_TIME_,28727
1557352402,95318b119bfc3a479e910c55ffd34d44,Form,14,0,comprehension,NULL,q1,Alex
1557352402,95318b119bfc3a479e910c55ffd34d44,Form,14,0,comprehension,NULL,q2,20
1557352402,95318b119bfc3a479e910c55ffd34d44,Form,14,0,comprehension,NULL,_REACTION_TIME_,7145
1557352402,95318b119bfc3a479e910c55ffd34d44,Form,15,0,outro,NULL,nativeq,yes
1557352402,95318b119bfc3a479e910c55ffd34d44,Form,15,0,outro,NULL,_REACTION_TIME_,8251
#
# Results on Wednesday May 08 2019 21:55:36 UTC.
# USER AGENT: Mozilla/5.0 (Linux; Android 9; Pixel 2 XL) AppleWebKit/537.36 (KHTML, like Gecko) Chrome/74.0.3729.136 Mobile Safari/537.36
# Design number was non-random = 81
#
# Columns below this comment are as follows:
# 1. Time results were received.
# 2. MD5 hash of participant's IP address.
# 3. Controller name.
# 4. Item number.
# 5. Element number.
# 6. Type.
# 7. Group.
# 8. Field name.
# 9. Field value.
1557352537,f0549d0523d5a31eb39371d67326436c,Form,1,0,intro,NULL,_REACTION_TIME_,6723
1557352537,f0549d0523d5a31eb39371d67326436c,Form,11,0,both-22,1,single,6
1557352537,f0549d0523d5a31eb39371d67326436c,Form,11,0,both-22,1,both,1
1557352537,f0549d0523d5a31eb39371d67326436c,Form,11,0,both-22,1,exhaust,1
1557352537,f0549d0523d5a31eb39371d67326436c,Form,11,0,both-22,1,_REACTION_TIME_,38389
1557352537,f0549d0523d5a31eb39371d67326436c,Form,14,0,comprehension,NULL,q1,Alex
1557352537,f0549d0523d5a31eb39371d67326436c,Form,14,0,comprehension,NULL,q2,22
1557352537,f0549d0523d5a31eb39371d67326436c,Form,14,0,comprehension,NULL,_REACTION_TIME_,16642
1557352537,f0549d0523d5a31eb39371d67326436c,Form,15,0,outro,NULL,nativeq,yes
1557352537,f0549d0523d5a31eb39371d67326436c,Form,15,0,outro,NULL,_REACTION_TIME_,13300
#
# Results on Wednesday May 08 2019 21:56:17 UTC.
# USER AGENT: Mozilla/5.0 (Windows NT 10.0; Win64; x64) AppleWebKit/537.36 (KHTML, like Gecko) Chrome/74.0.3729.131 Safari/537.36
# Design number was non-random = 82
#
# Columns below this comment are as follows:
# 1. Time results were received.
# 2. MD5 hash of participant's IP address.
# 3. Controller name.
# 4. Item number.
# 5. Element number.
# 6. Type.
# 7. Group.
# 8. Field name.
# 9. Field value.
1557352578,6751bc4648fff85ba6ef415a00d2033e,Form,1,0,intro,NULL,_REACTION_TIME_,4954
1557352578,6751bc4648fff85ba6ef415a00d2033e,Form,12,0,single-24,1,single,7
1557352578,6751bc4648fff85ba6ef415a00d2033e,Form,12,0,single-24,1,both,7
1557352578,6751bc4648fff85ba6ef415a00d2033e,Form,12,0,single-24,1,exhaust,7
1557352578,6751bc4648fff85ba6ef415a00d2033e,Form,12,0,single-24,1,_REACTION_TIME_,6191
1557352578,6751bc4648fff85ba6ef415a00d2033e,Form,14,0,comprehension,NULL,q1,Alex
1557352578,6751bc4648fff85ba6ef415a00d2033e,Form,14,0,comprehension,NULL,q2,20
1557352578,6751bc4648fff85ba6ef415a00d2033e,Form,14,0,comprehension,NULL,_REACTION_TIME_,4594
1557352578,6751bc4648fff85ba6ef415a00d2033e,Form,15,0,outro,NULL,nativeq,yes
1557352578,6751bc4648fff85ba6ef415a00d2033e,Form,15,0,outro,NULL,_REACTION_TIME_,13148
#
# Results on Wednesday May 08 2019 21:58:32 UTC.
# USER AGENT: Mozilla/5.0 (Macintosh; Intel Mac OS X 10_14_4) AppleWebKit/537.36 (KHTML, like Gecko) Chrome/74.0.3729.108 Safari/537.36
# Design number was non-random = 83
#
# Columns below this comment are as follows:
# 1. Time results were received.
# 2. MD5 hash of participant's IP address.
# 3. Controller name.
# 4. Item number.
# 5. Element number.
# 6. Type.
# 7. Group.
# 8. Field name.
# 9. Field value.
1557352713,7c155f50feb259a5cc7474d89a316838,Form,1,0,intro,NULL,_REACTION_TIME_,3933
1557352713,7c155f50feb259a5cc7474d89a316838,Form,13,0,both-24,1,single,1
1557352713,7c155f50feb259a5cc7474d89a316838,Form,13,0,both-24,1,both,1
1557352713,7c155f50feb259a5cc7474d89a316838,Form,13,0,both-24,1,exhaust,1
1557352713,7c155f50feb259a5cc7474d89a316838,Form,13,0,both-24,1,_REACTION_TIME_,28357
1557352713,7c155f50feb259a5cc7474d89a316838,Form,14,0,comprehension,NULL,q1,Alex
1557352713,7c155f50feb259a5cc7474d89a316838,Form,14,0,comprehension,NULL,q2,24
1557352713,7c155f50feb259a5cc7474d89a316838,Form,14,0,comprehension,NULL,_REACTION_TIME_,7895
1557352713,7c155f50feb259a5cc7474d89a316838,Form,15,0,outro,NULL,nativeq,yes
1557352713,7c155f50feb259a5cc7474d89a316838,Form,15,0,outro,NULL,_REACTION_TIME_,6228
#
# Results on Wednesday May 08 2019 22:03:48 UTC.
# USER AGENT: Mozilla/5.0 (Windows NT 10.0; Win64; x64) AppleWebKit/537.36 (KHTML, like Gecko) Chrome/74.0.3729.131 Safari/537.36
# Design number was non-random = 84
#
# Columns below this comment are as follows:
# 1. Time results were received.
# 2. MD5 hash of participant's IP address.
# 3. Controller name.
# 4. Item number.
# 5. Element number.
# 6. Type.
# 7. Group.
# 8. Field name.
# 9. Field value.
1557353029,98d53d7a963933d6f66eb141227d55cf,Form,1,0,intro,NULL,_REACTION_TIME_,4597
1557353029,98d53d7a963933d6f66eb141227d55cf,Form,2,0,single-15,1,single,1
1557353029,98d53d7a963933d6f66eb141227d55cf,Form,2,0,single-15,1,“both”,1
1557353029,98d53d7a963933d6f66eb141227d55cf,Form,2,0,single-15,1,exhaust,2
1557353029,98d53d7a963933d6f66eb141227d55cf,Form,2,0,single-15,1,_REACTION_TIME_,33794
1557353029,98d53d7a963933d6f66eb141227d55cf,Form,14,0,comprehension,NULL,q1,Alex
1557353029,98d53d7a963933d6f66eb141227d55cf,Form,14,0,comprehension,NULL,q2,15
1557353029,98d53d7a963933d6f66eb141227d55cf,Form,14,0,comprehension,NULL,_REACTION_TIME_,7700
1557353029,98d53d7a963933d6f66eb141227d55cf,Form,15,0,outro,NULL,nativeq,yes
1557353029,98d53d7a963933d6f66eb141227d55cf,Form,15,0,outro,NULL,_REACTION_TIME_,9980
#
# Results on Wednesday May 08 2019 22:07:06 UTC.
# USER AGENT: Mozilla/5.0 (Windows NT 10.0; Win64; x64) AppleWebKit/537.36 (KHTML, like Gecko) Chrome/74.0.3729.131 Safari/537.36
# Design number was non-random = 85
#
# Columns below this comment are as follows:
# 1. Time results were received.
# 2. MD5 hash of participant's IP address.
# 3. Controller name.
# 4. Item number.
# 5. Element number.
# 6. Type.
# 7. Group.
# 8. Field name.
# 9. Field value.
1557353226,9f2571497eb50c430d66a88aa7c29080,Form,1,0,intro,NULL,_REACTION_TIME_,6815
1557353226,9f2571497eb50c430d66a88aa7c29080,Form,3,0,both-15,1,single,1
1557353226,9f2571497eb50c430d66a88aa7c29080,Form,3,0,both-15,1,both,1
1557353226,9f2571497eb50c430d66a88aa7c29080,Form,3,0,both-15,1,exhaust,1
1557353226,9f2571497eb50c430d66a88aa7c29080,Form,3,0,both-15,1,_REACTION_TIME_,42216
1557353226,9f2571497eb50c430d66a88aa7c29080,Form,14,0,comprehension,NULL,q1,Sam
1557353226,9f2571497eb50c430d66a88aa7c29080,Form,14,0,comprehension,NULL,q2,15
1557353226,9f2571497eb50c430d66a88aa7c29080,Form,14,0,comprehension,NULL,_REACTION_TIME_,9008
1557353226,9f2571497eb50c430d66a88aa7c29080,Form,15,0,outro,NULL,nativeq,yes
1557353226,9f2571497eb50c430d66a88aa7c29080,Form,15,0,outro,NULL,_REACTION_TIME_,15289
#
# Results on Wednesday May 08 2019 22:17:04 UTC.
# USER AGENT: Mozilla/5.0 (Windows NT 10.0; Win64; x64) AppleWebKit/537.36 (KHTML, like Gecko) Chrome/64.0.3282.140 Safari/537.36 Edge/18.17763
# Design number was non-random = 86
#
# Columns below this comment are as follows:
# 1. Time results were received.
# 2. MD5 hash of participant's IP address.
# 3. Controller name.
# 4. Item number.
# 5. Element number.
# 6. Type.
# 7. Group.
# 8. Field name.
# 9. Field value.
1557353824,d97c5aae744f32b1b58c22fd32cdca71,Form,1,0,intro,NULL,_REACTION_TIME_,4776
1557353824,d97c5aae744f32b1b58c22fd32cdca71,Form,4,0,single-16,1,single,1
1557353824,d97c5aae744f32b1b58c22fd32cdca71,Form,4,0,single-16,1,“both”,1
1557353824,d97c5aae744f32b1b58c22fd32cdca71,Form,4,0,single-16,1,exhaust,3
1557353824,d97c5aae744f32b1b58c22fd32cdca71,Form,4,0,single-16,1,_REACTION_TIME_,17315
1557353824,d97c5aae744f32b1b58c22fd32cdca71,Form,14,0,comprehension,NULL,q1,Alex
1557353824,d97c5aae744f32b1b58c22fd32cdca71,Form,14,0,comprehension,NULL,q2,16
1557353824,d97c5aae744f32b1b58c22fd32cdca71,Form,14,0,comprehension,NULL,_REACTION_TIME_,4897
1557353824,d97c5aae744f32b1b58c22fd32cdca71,Form,15,0,outro,NULL,nativeq,yes
1557353824,d97c5aae744f32b1b58c22fd32cdca71,Form,15,0,outro,NULL,_REACTION_TIME_,9427
#
# Results on Wednesday May 08 2019 22:25:30 UTC.
# USER AGENT: Mozilla/5.0 (Windows NT 10.0; Win64; x64) AppleWebKit/537.36 (KHTML, like Gecko) Chrome/74.0.3729.131 Safari/537.36
# Design number was non-random = 87
#
# Columns below this comment are as follows:
# 1. Time results were received.
# 2. MD5 hash of participant's IP address.
# 3. Controller name.
# 4. Item number.
# 5. Element number.
# 6. Type.
# 7. Group.
# 8. Field name.
# 9. Field value.
1557354331,260798863b2dd4741d849189693cc65e,Form,1,0,intro,NULL,_REACTION_TIME_,7910
1557354331,260798863b2dd4741d849189693cc65e,Form,5,0,both-16,1,single,4
1557354331,260798863b2dd4741d849189693cc65e,Form,5,0,both-16,1,both,1
1557354331,260798863b2dd4741d849189693cc65e,Form,5,0,both-16,1,exhaust,1
1557354331,260798863b2dd4741d849189693cc65e,Form,5,0,both-16,1,_REACTION_TIME_,32275
1557354331,260798863b2dd4741d849189693cc65e,Form,14,0,comprehension,NULL,q1,Alex
1557354331,260798863b2dd4741d849189693cc65e,Form,14,0,comprehension,NULL,q2,16
1557354331,260798863b2dd4741d849189693cc65e,Form,14,0,comprehension,NULL,_REACTION_TIME_,5213
1557354331,260798863b2dd4741d849189693cc65e,Form,15,0,outro,NULL,nativeq,yes
1557354331,260798863b2dd4741d849189693cc65e,Form,15,0,outro,NULL,_REACTION_TIME_,11949
#
# Results on Wednesday May 08 2019 22:32:24 UTC.
# USER AGENT: Mozilla/5.0 (Windows NT 10.0; Win64; x64) AppleWebKit/537.36 (KHTML, like Gecko) Chrome/74.0.3729.131 Safari/537.36
# Design number was non-random = 88
#
# Columns below this comment are as follows:
# 1. Time results were received.
# 2. MD5 hash of participant's IP address.
# 3. Controller name.
# 4. Item number.
# 5. Element number.
# 6. Type.
# 7. Group.
# 8. Field name.
# 9. Field value.
1557354744,2eedc07a7b3c0292a7e8bd2fc65e095b,Form,1,0,intro,NULL,_REACTION_TIME_,4804
1557354744,2eedc07a7b3c0292a7e8bd2fc65e095b,Form,6,0,single-18,1,single,4
1557354744,2eedc07a7b3c0292a7e8bd2fc65e095b,Form,6,0,single-18,1,both,1
1557354744,2eedc07a7b3c0292a7e8bd2fc65e095b,Form,6,0,single-18,1,exhaust,2
1557354744,2eedc07a7b3c0292a7e8bd2fc65e095b,Form,6,0,single-18,1,_REACTION_TIME_,29798
1557354744,2eedc07a7b3c0292a7e8bd2fc65e095b,Form,14,0,comprehension,NULL,q1,Alex
1557354744,2eedc07a7b3c0292a7e8bd2fc65e095b,Form,14,0,comprehension,NULL,q2,18
1557354744,2eedc07a7b3c0292a7e8bd2fc65e095b,Form,14,0,comprehension,NULL,_REACTION_TIME_,5045
1557354744,2eedc07a7b3c0292a7e8bd2fc65e095b,Form,15,0,outro,NULL,nativeq,yes
1557354744,2eedc07a7b3c0292a7e8bd2fc65e095b,Form,15,0,outro,NULL,_REACTION_TIME_,8694
#
# Results on Wednesday May 08 2019 22:37:37 UTC.
# USER AGENT: Mozilla/5.0 (Windows NT 10.0; Win64; x64) AppleWebKit/537.36 (KHTML, like Gecko) Chrome/73.0.3683.103 Safari/537.36
# Design number was non-random = 89
#
# Columns below this comment are as follows:
# 1. Time results were received.
# 2. MD5 hash of participant's IP address.
# 3. Controller name.
# 4. Item number.
# 5. Element number.
# 6. Type.
# 7. Group.
# 8. Field name.
# 9. Field value.
1557355057,32b49901f0990d48d3b9e76ec62f9e95,Form,1,0,intro,NULL,_REACTION_TIME_,7671
1557355057,32b49901f0990d48d3b9e76ec62f9e95,Form,7,0,both-18,1,single,6
1557355057,32b49901f0990d48d3b9e76ec62f9e95,Form,7,0,both-18,1,both,9
1557355057,32b49901f0990d48d3b9e76ec62f9e95,Form,7,0,both-18,1,exhaust,1
1557355057,32b49901f0990d48d3b9e76ec62f9e95,Form,7,0,both-18,1,_REACTION_TIME_,47388
1557355057,32b49901f0990d48d3b9e76ec62f9e95,Form,14,0,comprehension,NULL,q1,Alex
1557355057,32b49901f0990d48d3b9e76ec62f9e95,Form,14,0,comprehension,NULL,q2,18
1557355057,32b49901f0990d48d3b9e76ec62f9e95,Form,14,0,comprehension,NULL,_REACTION_TIME_,8506
1557355057,32b49901f0990d48d3b9e76ec62f9e95,Form,15,0,outro,NULL,nativeq,yes
1557355057,32b49901f0990d48d3b9e76ec62f9e95,Form,15,0,outro,NULL,_REACTION_TIME_,13689
#
# Results on Wednesday May 08 2019 22:37:55 UTC.
# USER AGENT: Mozilla/5.0 (Windows NT 10.0; Win64; x64) AppleWebKit/537.36 (KHTML, like Gecko) Chrome/74.0.3729.131 Safari/537.36
# Design number was non-random = 89
#
# Columns below this comment are as follows:
# 1. Time results were received.
# 2. MD5 hash of participant's IP address.
# 3. Controller name.
# 4. Item number.
# 5. Element number.
# 6. Type.
# 7. Group.
# 8. Field name.
# 9. Field value.
1557355076,0337ef2e59d13bfff6d946061c3c7563,Form,1,0,intro,NULL,_REACTION_TIME_,1831
1557355076,0337ef2e59d13bfff6d946061c3c7563,Form,7,0,both-18,1,single,1
1557355076,0337ef2e59d13bfff6d946061c3c7563,Form,7,0,both-18,1,both,1
1557355076,0337ef2e59d13bfff6d946061c3c7563,Form,7,0,both-18,1,exhaust,1
