#
# Results on Monday January 21 2019 16:50:36 UTC.
# USER AGENT: Mozilla/5.0 (Windows NT 10.0; Win64; x64) AppleWebKit/537.36 (KHTML, like Gecko) Chrome/71.0.3578.98 Safari/537.36
# Design number was non-random = 32
#
# Columns below this comment are as follows:
# 1. Time results were received.
# 2. MD5 hash of participant's IP address.
# 3. Controller name.
# 4. Item number.
# 5. Element number.
# 6. Type.
# 7. Group.
# 8. Field name.
# 9. Field value.
1548089437,5612ebb599a1bb77371ddaceff573238,Form,0,0,intro,NULL,_REACTION_TIME_,1307
1548089437,5612ebb599a1bb77371ddaceff573238,Form,4,1,single-high,1,input,onlychair
1548089437,5612ebb599a1bb77371ddaceff573238,Form,4,1,single-high,1,_REACTION_TIME_,16551
1548089437,5612ebb599a1bb77371ddaceff573238,Form,8,0,comprehension,NULL,q1,Sam
1548089437,5612ebb599a1bb77371ddaceff573238,Form,8,0,comprehension,NULL,q2,green
1548089437,5612ebb599a1bb77371ddaceff573238,Form,8,0,comprehension,NULL,_REACTION_TIME_,5101
1548089437,5612ebb599a1bb77371ddaceff573238,Form,9,0,outro,NULL,nativeq,yes
1548089437,5612ebb599a1bb77371ddaceff573238,Form,9,0,outro,NULL,_REACTION_TIME_,3214
#
# Results on Monday January 21 2019 16:51:13 UTC.
# USER AGENT: Mozilla/5.0 (Windows NT 10.0; Win64; x64) AppleWebKit/537.36 (KHTML, like Gecko) Chrome/71.0.3578.98 Safari/537.36
# Design number was non-random = 32
#
# Columns below this comment are as follows:
# 1. Time results were received.
# 2. MD5 hash of participant's IP address.
# 3. Controller name.
# 4. Item number.
# 5. Element number.
# 6. Type.
# 7. Group.
# 8. Field name.
# 9. Field value.
1548089474,93f6ea503e12eb4650885ae1551ed8de,Form,0,0,intro,NULL,_REACTION_TIME_,9735
1548089474,93f6ea503e12eb4650885ae1551ed8de,Form,4,1,single-high,1,input,chair
1548089474,93f6ea503e12eb4650885ae1551ed8de,Form,4,1,single-high,1,_REACTION_TIME_,16970
1548089474,93f6ea503e12eb4650885ae1551ed8de,Form,8,0,comprehension,NULL,q1,Sam
1548089474,93f6ea503e12eb4650885ae1551ed8de,Form,8,0,comprehension,NULL,q2,green
1548089474,93f6ea503e12eb4650885ae1551ed8de,Form,8,0,comprehension,NULL,_REACTION_TIME_,6701
1548089474,93f6ea503e12eb4650885ae1551ed8de,Form,9,0,outro,NULL,nativeq,yes
1548089474,93f6ea503e12eb4650885ae1551ed8de,Form,9,0,outro,NULL,_REACTION_TIME_,19435
#
# Results on Monday January 21 2019 16:53:45 UTC.
# USER AGENT: Mozilla/5.0 (Windows NT 10.0; Win64; x64) AppleWebKit/537.36 (KHTML, like Gecko) Chrome/71.0.3578.98 Safari/537.36
# Design number was non-random = 34
#
# Columns below this comment are as follows:
# 1. Time results were received.
# 2. MD5 hash of participant's IP address.
# 3. Controller name.
# 4. Item number.
# 5. Element number.
# 6. Type.
# 7. Group.
# 8. Field name.
# 9. Field value.
1548089625,8d2c33e78dc6a1b560e990036ce12892,Form,0,0,intro,NULL,_REACTION_TIME_,5630
1548089625,8d2c33e78dc6a1b560e990036ce12892,Form,6,1,single-low,1,input,onlyfootstool
1548089625,8d2c33e78dc6a1b560e990036ce12892,Form,6,1,single-low,1,_REACTION_TIME_,22173
1548089625,8d2c33e78dc6a1b560e990036ce12892,Form,8,0,comprehension,NULL,q1,Sam
1548089625,8d2c33e78dc6a1b560e990036ce12892,Form,8,0,comprehension,NULL,q2,green
1548089625,8d2c33e78dc6a1b560e990036ce12892,Form,8,0,comprehension,NULL,_REACTION_TIME_,16981
1548089625,8d2c33e78dc6a1b560e990036ce12892,Form,9,0,outro,NULL,nativeq,yes
1548089625,8d2c33e78dc6a1b560e990036ce12892,Form,9,0,outro,NULL,_REACTION_TIME_,9556
#
# Results on Monday January 21 2019 19:57:43 UTC.
# USER AGENT: Mozilla/5.0 (Macintosh; Intel Mac OS X 10_14_0) AppleWebKit/537.36 (KHTML, like Gecko) Chrome/70.0.3538.110 Safari/537.36
# Design number was non-random = 35
#
# Columns below this comment are as follows:
# 1. Time results were received.
# 2. MD5 hash of participant's IP address.
# 3. Controller name.
# 4. Item number.
# 5. Element number.
# 6. Type.
# 7. Group.
# 8. Field name.
# 9. Field value.
1548100664,7fce9a87481224a3a006cd4fcdb79e97,Form,0,0,intro,NULL,_REACTION_TIME_,1136
1548100664,7fce9a87481224a3a006cd4fcdb79e97,Form,7,1,both-low,1,input,both
1548100664,7fce9a87481224a3a006cd4fcdb79e97,Form,7,1,both-low,1,_REACTION_TIME_,16254
1548100664,7fce9a87481224a3a006cd4fcdb79e97,Form,8,0,comprehension,NULL,q1,Sam
1548100664,7fce9a87481224a3a006cd4fcdb79e97,Form,8,0,comprehension,NULL,q2,green
1548100664,7fce9a87481224a3a006cd4fcdb79e97,Form,8,0,comprehension,NULL,_REACTION_TIME_,2910
1548100664,7fce9a87481224a3a006cd4fcdb79e97,Form,9,0,outro,NULL,nativeq,no
1548100664,7fce9a87481224a3a006cd4fcdb79e97,Form,9,0,outro,NULL,_REACTION_TIME_,4508
#
# Results on Monday January 21 2019 19:58:47 UTC.
# USER AGENT: Mozilla/5.0 (Macintosh; Intel Mac OS X 10_14_0) AppleWebKit/537.36 (KHTML, like Gecko) Chrome/70.0.3538.110 Safari/537.36
# Design number was non-random = 36
#
# Columns below this comment are as follows:
# 1. Time results were received.
# 2. MD5 hash of participant's IP address.
# 3. Controller name.
# 4. Item number.
# 5. Element number.
# 6. Type.
# 7. Group.
# 8. Field name.
# 9. Field value.
1548100727,7fce9a87481224a3a006cd4fcdb79e97,Form,0,0,intro,NULL,_REACTION_TIME_,1450
1548100727,7fce9a87481224a3a006cd4fcdb79e97,Form,4,1,single-high,1,input,chair
1548100727,7fce9a87481224a3a006cd4fcdb79e97,Form,4,1,single-high,1,_REACTION_TIME_,4194
1548100727,7fce9a87481224a3a006cd4fcdb79e97,Form,8,0,comprehension,NULL,q1,Sam
1548100727,7fce9a87481224a3a006cd4fcdb79e97,Form,8,0,comprehension,NULL,q2,green
1548100727,7fce9a87481224a3a006cd4fcdb79e97,Form,8,0,comprehension,NULL,_REACTION_TIME_,2719
1548100727,7fce9a87481224a3a006cd4fcdb79e97,Form,9,0,outro,NULL,nativeq,no
1548100727,7fce9a87481224a3a006cd4fcdb79e97,Form,9,0,outro,NULL,_REACTION_TIME_,2133
#
# Results on Monday January 21 2019 19:59:09 UTC.
# USER AGENT: Mozilla/5.0 (Macintosh; Intel Mac OS X 10_14_0) AppleWebKit/537.36 (KHTML, like Gecko) Chrome/70.0.3538.110 Safari/537.36
# Design number was non-random = 37
#
# Columns below this comment are as follows:
# 1. Time results were received.
# 2. MD5 hash of participant's IP address.
# 3. Controller name.
# 4. Item number.
# 5. Element number.
# 6. Type.
# 7. Group.
# 8. Field name.
# 9. Field value.
1548100750,7fce9a87481224a3a006cd4fcdb79e97,Form,0,0,intro,NULL,_REACTION_TIME_,903
1548100750,7fce9a87481224a3a006cd4fcdb79e97,Form,5,1,both-high,1,input,both
1548100750,7fce9a87481224a3a006cd4fcdb79e97,Form,5,1,both-high,1,_REACTION_TIME_,5657
1548100750,7fce9a87481224a3a006cd4fcdb79e97,Form,8,0,comprehension,NULL,q1,Sam
1548100750,7fce9a87481224a3a006cd4fcdb79e97,Form,8,0,comprehension,NULL,q2,green
1548100750,7fce9a87481224a3a006cd4fcdb79e97,Form,8,0,comprehension,NULL,_REACTION_TIME_,5756
1548100750,7fce9a87481224a3a006cd4fcdb79e97,Form,9,0,outro,NULL,nativeq,no
1548100750,7fce9a87481224a3a006cd4fcdb79e97,Form,9,0,outro,NULL,_REACTION_TIME_,1966
#
# Results on Monday January 21 2019 19:59:26 UTC.
# USER AGENT: Mozilla/5.0 (Macintosh; Intel Mac OS X 10_14_0) AppleWebKit/537.36 (KHTML, like Gecko) Chrome/70.0.3538.110 Safari/537.36
# Design number was non-random = 38
#
# Columns below this comment are as follows:
# 1. Time results were received.
# 2. MD5 hash of participant's IP address.
# 3. Controller name.
# 4. Item number.
# 5. Element number.
# 6. Type.
# 7. Group.
# 8. Field name.
# 9. Field value.
1548100766,7fce9a87481224a3a006cd4fcdb79e97,Form,0,0,intro,NULL,_REACTION_TIME_,977
1548100766,7fce9a87481224a3a006cd4fcdb79e97,Form,6,1,single-low,1,input,footstool
1548100766,7fce9a87481224a3a006cd4fcdb79e97,Form,6,1,single-low,1,_REACTION_TIME_,3036
1548100766,7fce9a87481224a3a006cd4fcdb79e97,Form,8,0,comprehension,NULL,q1,Sam
1548100766,7fce9a87481224a3a006cd4fcdb79e97,Form,8,0,comprehension,NULL,q2,green
1548100766,7fce9a87481224a3a006cd4fcdb79e97,Form,8,0,comprehension,NULL,_REACTION_TIME_,2665
1548100766,7fce9a87481224a3a006cd4fcdb79e97,Form,9,0,outro,NULL,nativeq,no
1548100766,7fce9a87481224a3a006cd4fcdb79e97,Form,9,0,outro,NULL,_REACTION_TIME_,1762
#
# Results on Monday January 21 2019 19:59:41 UTC.
# USER AGENT: Mozilla/5.0 (Macintosh; Intel Mac OS X 10_14_0) AppleWebKit/537.36 (KHTML, like Gecko) Chrome/70.0.3538.110 Safari/537.36
# Design number was non-random = 39
#
# Columns below this comment are as follows:
# 1. Time results were received.
# 2. MD5 hash of participant's IP address.
# 3. Controller name.
# 4. Item number.
# 5. Element number.
# 6. Type.
# 7. Group.
# 8. Field name.
# 9. Field value.
1548100782,7fce9a87481224a3a006cd4fcdb79e97,Form,0,0,intro,NULL,_REACTION_TIME_,1397
1548100782,7fce9a87481224a3a006cd4fcdb79e97,Form,7,1,both-low,1,input,both
1548100782,7fce9a87481224a3a006cd4fcdb79e97,Form,7,1,both-low,1,_REACTION_TIME_,3148
1548100782,7fce9a87481224a3a006cd4fcdb79e97,Form,8,0,comprehension,NULL,q1,Sam
1548100782,7fce9a87481224a3a006cd4fcdb79e97,Form,8,0,comprehension,NULL,q2,green
1548100782,7fce9a87481224a3a006cd4fcdb79e97,Form,8,0,comprehension,NULL,_REACTION_TIME_,3047
1548100782,7fce9a87481224a3a006cd4fcdb79e97,Form,9,0,outro,NULL,nativeq,no
1548100782,7fce9a87481224a3a006cd4fcdb79e97,Form,9,0,outro,NULL,_REACTION_TIME_,1661
#
# Results on Monday January 21 2019 19:59:57 UTC.
# USER AGENT: Mozilla/5.0 (Macintosh; Intel Mac OS X 10_14_0) AppleWebKit/537.36 (KHTML, like Gecko) Chrome/70.0.3538.110 Safari/537.36
# Design number was non-random = 40
#
# Columns below this comment are as follows:
# 1. Time results were received.
# 2. MD5 hash of participant's IP address.
# 3. Controller name.
# 4. Item number.
# 5. Element number.
# 6. Type.
# 7. Group.
# 8. Field name.
# 9. Field value.
1548100798,7fce9a87481224a3a006cd4fcdb79e97,Form,0,0,intro,NULL,_REACTION_TIME_,1366
1548100798,7fce9a87481224a3a006cd4fcdb79e97,Form,4,1,single-high,1,input,onlychair
1548100798,7fce9a87481224a3a006cd4fcdb79e97,Form,4,1,single-high,1,_REACTION_TIME_,3743
1548100798,7fce9a87481224a3a006cd4fcdb79e97,Form,8,0,comprehension,NULL,q1,Sam
1548100798,7fce9a87481224a3a006cd4fcdb79e97,Form,8,0,comprehension,NULL,q2,green
1548100798,7fce9a87481224a3a006cd4fcdb79e97,Form,8,0,comprehension,NULL,_REACTION_TIME_,2562
1548100798,7fce9a87481224a3a006cd4fcdb79e97,Form,9,0,outro,NULL,nativeq,no
1548100798,7fce9a87481224a3a006cd4fcdb79e97,Form,9,0,outro,NULL,_REACTION_TIME_,1650
#
# Results on Monday January 21 2019 21:15:19 UTC.
# USER AGENT: Mozilla/5.0 (Windows NT 10.0; Win64; x64) AppleWebKit/537.36 (KHTML, like Gecko) Chrome/71.0.3578.98 Safari/537.36
# Design number was non-random = 41
#
# Columns below this comment are as follows:
# 1. Time results were received.
# 2. MD5 hash of participant's IP address.
# 3. Controller name.
# 4. Item number.
# 5. Element number.
# 6. Type.
# 7. Group.
# 8. Field name.
# 9. Field value.
1548105320,9b6abe3d948cece21e5bd6eff91e745c,Form,0,0,intro,NULL,_REACTION_TIME_,4220
1548105320,9b6abe3d948cece21e5bd6eff91e745c,Form,5,1,both-high,1,input,both
1548105320,9b6abe3d948cece21e5bd6eff91e745c,Form,5,1,both-high,1,_REACTION_TIME_,10973
1548105320,9b6abe3d948cece21e5bd6eff91e745c,Form,8,0,comprehension,NULL,q1,Alex
1548105320,9b6abe3d948cece21e5bd6eff91e745c,Form,8,0,comprehension,NULL,q2,green
1548105320,9b6abe3d948cece21e5bd6eff91e745c,Form,8,0,comprehension,NULL,_REACTION_TIME_,6119
1548105320,9b6abe3d948cece21e5bd6eff91e745c,Form,9,0,outro,NULL,nativeq,yes
1548105320,9b6abe3d948cece21e5bd6eff91e745c,Form,9,0,outro,NULL,_REACTION_TIME_,8647
#
# Results on Monday January 21 2019 21:23:54 UTC.
# USER AGENT: Mozilla/5.0 (Windows NT 6.1; Win64; x64) AppleWebKit/537.36 (KHTML, like Gecko) Chrome/71.0.3578.98 Safari/537.36
# Design number was non-random = 42
#
# Columns below this comment are as follows:
# 1. Time results were received.
# 2. MD5 hash of participant's IP address.
# 3. Controller name.
# 4. Item number.
# 5. Element number.
# 6. Type.
# 7. Group.
# 8. Field name.
# 9. Field value.
1548105834,93bd4cac4ebb231ed10d6db33f41c87b,Form,0,0,intro,NULL,_REACTION_TIME_,4745
1548105834,93bd4cac4ebb231ed10d6db33f41c87b,Form,6,1,single-low,1,input,onlychair
1548105834,93bd4cac4ebb231ed10d6db33f41c87b,Form,6,1,single-low,1,_REACTION_TIME_,8177
1548105834,93bd4cac4ebb231ed10d6db33f41c87b,Form,8,0,comprehension,NULL,q1,Sam
1548105834,93bd4cac4ebb231ed10d6db33f41c87b,Form,8,0,comprehension,NULL,q2,green
1548105834,93bd4cac4ebb231ed10d6db33f41c87b,Form,8,0,comprehension,NULL,_REACTION_TIME_,4355
1548105834,93bd4cac4ebb231ed10d6db33f41c87b,Form,9,0,outro,NULL,nativeq,yes
1548105834,93bd4cac4ebb231ed10d6db33f41c87b,Form,9,0,outro,NULL,_REACTION_TIME_,5553
#
# Results on Monday January 21 2019 21:24:16 UTC.
# USER AGENT: Mozilla/5.0 (Windows NT 10.0; Win64; x64; rv:64.0) Gecko/20100101 Firefox/64.0
# Design number was non-random = 42
#
# Columns below this comment are as follows:
# 1. Time results were received.
# 2. MD5 hash of participant's IP address.
# 3. Controller name.
# 4. Item number.
# 5. Element number.
# 6. Type.
# 7. Group.
# 8. Field name.
# 9. Field value.
1548105856,c5078a141b14bd43c79ab9934a5fb18d,Form,0,0,intro,NULL,_REACTION_TIME_,1681
1548105856,c5078a141b14bd43c79ab9934a5fb18d,Form,6,1,single-low,1,input,onlyfootstool
1548105856,c5078a141b14bd43c79ab9934a5fb18d,Form,6,1,single-low,1,_REACTION_TIME_,11413
1548105856,c5078a141b14bd43c79ab9934a5fb18d,Form,8,0,comprehension,NULL,q1,Alex
1548105856,c5078a141b14bd43c79ab9934a5fb18d,Form,8,0,comprehension,NULL,q2,green
1548105856,c5078a141b14bd43c79ab9934a5fb18d,Form,8,0,comprehension,NULL,_REACTION_TIME_,7534
1548105856,c5078a141b14bd43c79ab9934a5fb18d,Form,9,0,outro,NULL,nativeq,yes
1548105856,c5078a141b14bd43c79ab9934a5fb18d,Form,9,0,outro,NULL,_REACTION_TIME_,11585
#
# Results on Monday January 21 2019 21:24:43 UTC.
# USER AGENT: Mozilla/5.0 (Windows NT 10.0; Win64; x64) AppleWebKit/537.36 (KHTML, like Gecko) Chrome/71.0.3578.98 Safari/537.36
# Design number was non-random = 42
#
# Columns below this comment are as follows:
# 1. Time results were received.
# 2. MD5 hash of participant's IP address.
# 3. Controller name.
# 4. Item number.
# 5. Element number.
# 6. Type.
# 7. Group.
# 8. Field name.
# 9. Field value.
1548105884,83fabe193d0118272ec57c8681b70a10,Form,0,0,intro,NULL,_REACTION_TIME_,5563
1548105884,83fabe193d0118272ec57c8681b70a10,Form,6,1,single-low,1,input,both
1548105884,83fabe193d0118272ec57c8681b70a10,Form,6,1,single-low,1,_REACTION_TIME_,30061
1548105884,83fabe193d0118272ec57c8681b70a10,Form,8,0,comprehension,NULL,q1,Alex
1548105884,83fabe193d0118272ec57c8681b70a10,Form,8,0,comprehension,NULL,q2,green
1548105884,83fabe193d0118272ec57c8681b70a10,Form,8,0,comprehension,NULL,_REACTION_TIME_,10733
1548105884,83fabe193d0118272ec57c8681b70a10,Form,9,0,outro,NULL,nativeq,yes
1548105884,83fabe193d0118272ec57c8681b70a10,Form,9,0,outro,NULL,_REACTION_TIME_,8623
#
# Results on Monday January 21 2019 21:25:23 UTC.
# USER AGENT: Mozilla/5.0 (Windows NT 10.0; Win64; x64) AppleWebKit/537.36 (KHTML, like Gecko) Chrome/71.0.3578.98 Safari/537.36
# Design number was non-random = 42
#
# Columns below this comment are as follows:
# 1. Time results were received.
# 2. MD5 hash of participant's IP address.
# 3. Controller name.
# 4. Item number.
# 5. Element number.
# 6. Type.
# 7. Group.
# 8. Field name.
# 9. Field value.
1548105924,c0c8ccc53b617e17eda0e0479d7f452b,Form,0,0,intro,NULL,_REACTION_TIME_,4377
1548105924,c0c8ccc53b617e17eda0e0479d7f452b,Form,6,1,single-low,1,input,footstool
1548105924,c0c8ccc53b617e17eda0e0479d7f452b,Form,6,1,single-low,1,_REACTION_TIME_,48415
1548105924,c0c8ccc53b617e17eda0e0479d7f452b,Form,8,0,comprehension,NULL,q1,Alex
1548105924,c0c8ccc53b617e17eda0e0479d7f452b,Form,8,0,comprehension,NULL,q2,green
1548105924,c0c8ccc53b617e17eda0e0479d7f452b,Form,8,0,comprehension,NULL,_REACTION_TIME_,28941
1548105924,c0c8ccc53b617e17eda0e0479d7f452b,Form,9,0,outro,NULL,nativeq,yes
1548105924,c0c8ccc53b617e17eda0e0479d7f452b,Form,9,0,outro,NULL,_REACTION_TIME_,13357
#
# Results on Monday January 21 2019 21:26:29 UTC.
# USER AGENT: Mozilla/5.0 (Windows NT 10.0; Win64; x64) AppleWebKit/537.36 (KHTML, like Gecko) Chrome/71.0.3578.98 Safari/537.36
# Design number was non-random = 46
#
# Columns below this comment are as follows:
# 1. Time results were received.
# 2. MD5 hash of participant's IP address.
# 3. Controller name.
# 4. Item number.
# 5. Element number.
# 6. Type.
# 7. Group.
# 8. Field name.
# 9. Field value.
1548105989,851d8cd21bc53028bf6ad79d2723a767,Form,0,0,intro,NULL,_REACTION_TIME_,3892
1548105989,851d8cd21bc53028bf6ad79d2723a767,Form,6,1,single-low,1,input,footstool
1548105989,851d8cd21bc53028bf6ad79d2723a767,Form,6,1,single-low,1,_REACTION_TIME_,9653
1548105989,851d8cd21bc53028bf6ad79d2723a767,Form,8,0,comprehension,NULL,q1,Alex
1548105989,851d8cd21bc53028bf6ad79d2723a767,Form,8,0,comprehension,NULL,q2,tan
1548105989,851d8cd21bc53028bf6ad79d2723a767,Form,8,0,comprehension,NULL,_REACTION_TIME_,5677
1548105989,851d8cd21bc53028bf6ad79d2723a767,Form,9,0,outro,NULL,nativeq,yes
1548105989,851d8cd21bc53028bf6ad79d2723a767,Form,9,0,outro,NULL,_REACTION_TIME_,2931
#
# Results on Monday January 21 2019 21:31:51 UTC.
# USER AGENT: Mozilla/5.0 (Windows NT 10.0; Win64; x64) AppleWebKit/537.36 (KHTML, like Gecko) Chrome/71.0.3578.98 Safari/537.36
# Design number was non-random = 47
#
# Columns below this comment are as follows:
# 1. Time results were received.
# 2. MD5 hash of participant's IP address.
# 3. Controller name.
# 4. Item number.
# 5. Element number.
# 6. Type.
# 7. Group.
# 8. Field name.
# 9. Field value.
1548106311,d4edb49b79a7264e9bef04a9c5ee57b0,Form,0,0,intro,NULL,_REACTION_TIME_,2505
1548106311,d4edb49b79a7264e9bef04a9c5ee57b0,Form,7,1,both-low,1,input,both
1548106311,d4edb49b79a7264e9bef04a9c5ee57b0,Form,7,1,both-low,1,_REACTION_TIME_,11213
1548106311,d4edb49b79a7264e9bef04a9c5ee57b0,Form,8,0,comprehension,NULL,q1,Alex
1548106311,d4edb49b79a7264e9bef04a9c5ee57b0,Form,8,0,comprehension,NULL,q2,green
1548106311,d4edb49b79a7264e9bef04a9c5ee57b0,Form,8,0,comprehension,NULL,_REACTION_TIME_,7254
1548106311,d4edb49b79a7264e9bef04a9c5ee57b0,Form,9,0,outro,NULL,nativeq,yes
1548106311,d4edb49b79a7264e9bef04a9c5ee57b0,Form,9,0,outro,NULL,_REACTION_TIME_,4973
#
# Results on Monday January 21 2019 21:32:32 UTC.
# USER AGENT: Mozilla/5.0 (Windows NT 6.1; Win64; x64) AppleWebKit/537.36 (KHTML, like Gecko) Chrome/71.0.3578.98 Safari/537.36
# Design number was non-random = 47
#
# Columns below this comment are as follows:
# 1. Time results were received.
# 2. MD5 hash of participant's IP address.
# 3. Controller name.
# 4. Item number.
# 5. Element number.
# 6. Type.
# 7. Group.
# 8. Field name.
# 9. Field value.
1548106353,3fa939eaf4d8842c249f77e4a5acbd26,Form,0,0,intro,NULL,_REACTION_TIME_,8654
1548106353,3fa939eaf4d8842c249f77e4a5acbd26,Form,7,1,both-low,1,input,both
1548106353,3fa939eaf4d8842c249f77e4a5acbd26,Form,7,1,both-low,1,_REACTION_TIME_,16956
1548106353,3fa939eaf4d8842c249f77e4a5acbd26,Form,8,0,comprehension,NULL,q1,Alex
1548106353,3fa939eaf4d8842c249f77e4a5acbd26,Form,8,0,comprehension,NULL,q2,green
1548106353,3fa939eaf4d8842c249f77e4a5acbd26,Form,8,0,comprehension,NULL,_REACTION_TIME_,8729
1548106353,3fa939eaf4d8842c249f77e4a5acbd26,Form,9,0,outro,NULL,nativeq,yes
1548106353,3fa939eaf4d8842c249f77e4a5acbd26,Form,9,0,outro,NULL,_REACTION_TIME_,10158
#
# Results on Monday January 21 2019 21:32:56 UTC.
# USER AGENT: Mozilla/5.0 (X11; CrOS x86_64 11316.82.0) AppleWebKit/537.36 (KHTML, like Gecko) Chrome/72.0.3626.59 Safari/537.36
# Design number was non-random = 48
#
# Columns below this comment are as follows:
# 1. Time results were received.
# 2. MD5 hash of participant's IP address.
# 3. Controller name.
# 4. Item number.
# 5. Element number.
# 6. Type.
# 7. Group.
# 8. Field name.
# 9. Field value.
1548106376,50218ce4900340a6d13a6052d875fa85,Form,0,0,intro,NULL,_REACTION_TIME_,4875
1548106376,50218ce4900340a6d13a6052d875fa85,Form,4,1,single-high,1,input,chair
1548106376,50218ce4900340a6d13a6052d875fa85,Form,4,1,single-high,1,_REACTION_TIME_,10337
1548106376,50218ce4900340a6d13a6052d875fa85,Form,8,0,comprehension,NULL,q1,Alex
1548106376,50218ce4900340a6d13a6052d875fa85,Form,8,0,comprehension,NULL,q2,green
1548106376,50218ce4900340a6d13a6052d875fa85,Form,8,0,comprehension,NULL,_REACTION_TIME_,5615
1548106376,50218ce4900340a6d13a6052d875fa85,Form,9,0,outro,NULL,nativeq,yes
1548106376,50218ce4900340a6d13a6052d875fa85,Form,9,0,outro,NULL,_REACTION_TIME_,13250
#
# Results on Monday January 21 2019 21:33:31 UTC.
# USER AGENT: Mozilla/5.0 (Windows NT 10.0; Win64; x64) AppleWebKit/537.36 (KHTML, like Gecko) Chrome/71.0.3578.98 Safari/537.36
# Design number was non-random = 49
#
# Columns below this comment are as follows:
# 1. Time results were received.
# 2. MD5 hash of participant's IP address.
# 3. Controller name.
# 4. Item number.
# 5. Element number.
# 6. Type.
# 7. Group.
# 8. Field name.
# 9. Field value.
1548106411,dde92daab4edd477a04fd42aa25ba43c,Form,0,0,intro,NULL,_REACTION_TIME_,2864
1548106411,dde92daab4edd477a04fd42aa25ba43c,Form,5,1,both-high,1,input,chair
1548106411,dde92daab4edd477a04fd42aa25ba43c,Form,5,1,both-high,1,_REACTION_TIME_,8030
1548106411,dde92daab4edd477a04fd42aa25ba43c,Form,8,0,comprehension,NULL,q1,Alex
1548106411,dde92daab4edd477a04fd42aa25ba43c,Form,8,0,comprehension,NULL,q2,green
1548106411,dde92daab4edd477a04fd42aa25ba43c,Form,8,0,comprehension,NULL,_REACTION_TIME_,6566
1548106411,dde92daab4edd477a04fd42aa25ba43c,Form,9,0,outro,NULL,nativeq,yes
1548106411,dde92daab4edd477a04fd42aa25ba43c,Form,9,0,outro,NULL,_REACTION_TIME_,3768
#
# Results on Monday January 21 2019 21:37:47 UTC.
# USER AGENT: Mozilla/5.0 (Windows NT 10.0; Win64; x64) AppleWebKit/537.36 (KHTML, like Gecko) Chrome/71.0.3578.98 Safari/537.36
# Design number was non-random = 51
#
# Columns below this comment are as follows:
# 1. Time results were received.
# 2. MD5 hash of participant's IP address.
# 3. Controller name.
# 4. Item number.
# 5. Element number.
# 6. Type.
# 7. Group.
# 8. Field name.
# 9. Field value.
1548106668,cf6d98054dca513448c307739d0ac25b,Form,0,0,intro,NULL,_REACTION_TIME_,12350
1548106668,cf6d98054dca513448c307739d0ac25b,Form,7,1,both-low,1,input,both
1548106668,cf6d98054dca513448c307739d0ac25b,Form,7,1,both-low,1,_REACTION_TIME_,18430
1548106668,cf6d98054dca513448c307739d0ac25b,Form,8,0,comprehension,NULL,q1,Alex
1548106668,cf6d98054dca513448c307739d0ac25b,Form,8,0,comprehension,NULL,q2,green
1548106668,cf6d98054dca513448c307739d0ac25b,Form,8,0,comprehension,NULL,_REACTION_TIME_,7479
1548106668,cf6d98054dca513448c307739d0ac25b,Form,9,0,outro,NULL,nativeq,yes
1548106668,cf6d98054dca513448c307739d0ac25b,Form,9,0,outro,NULL,_REACTION_TIME_,17774
#
# Results on Monday January 21 2019 21:41:31 UTC.
# USER AGENT: Mozilla/5.0 (Windows NT 10.0; Win64; x64) AppleWebKit/537.36 (KHTML, like Gecko) Chrome/46.0.2486.0 Safari/537.36 Edge/13.10586
# Design number was non-random = 52
#
# Columns below this comment are as follows:
# 1. Time results were received.
# 2. MD5 hash of participant's IP address.
# 3. Controller name.
# 4. Item number.
# 5. Element number.
# 6. Type.
# 7. Group.
# 8. Field name.
# 9. Field value.
1548106892,59c77793c1d1d647f474a388493b4bf6,Form,0,0,intro,NULL,_REACTION_TIME_,16392
1548106892,59c77793c1d1d647f474a388493b4bf6,Form,4,1,single-high,1,input,onlychair
1548106892,59c77793c1d1d647f474a388493b4bf6,Form,4,1,single-high,1,_REACTION_TIME_,13974
1548106892,59c77793c1d1d647f474a388493b4bf6,Form,8,0,comprehension,NULL,q1,Alex
1548106892,59c77793c1d1d647f474a388493b4bf6,Form,8,0,comprehension,NULL,q2,green
1548106892,59c77793c1d1d647f474a388493b4bf6,Form,8,0,comprehension,NULL,_REACTION_TIME_,8948
1548106892,59c77793c1d1d647f474a388493b4bf6,Form,9,0,outro,NULL,nativeq,yes
1548106892,59c77793c1d1d647f474a388493b4bf6,Form,9,0,outro,NULL,_REACTION_TIME_,9082
#
# Results on Monday January 21 2019 21:42:20 UTC.
# USER AGENT: Mozilla/5.0 (Windows NT 10.0; Win64; x64) AppleWebKit/537.36 (KHTML, like Gecko) Chrome/71.0.3578.98 Safari/537.36
# Design number was non-random = 52
#
# Columns below this comment are as follows:
# 1. Time results were received.
# 2. MD5 hash of participant's IP address.
# 3. Controller name.
# 4. Item number.
# 5. Element number.
# 6. Type.
# 7. Group.
# 8. Field name.
# 9. Field value.
1548106941,ddbf7fd2f124d8579ae2e79cd82c5630,Form,0,0,intro,NULL,_REACTION_TIME_,7100
1548106941,ddbf7fd2f124d8579ae2e79cd82c5630,Form,4,1,single-high,1,input,onlychair
1548106941,ddbf7fd2f124d8579ae2e79cd82c5630,Form,4,1,single-high,1,_REACTION_TIME_,29732
1548106941,ddbf7fd2f124d8579ae2e79cd82c5630,Form,8,0,comprehension,NULL,q1,Alex
1548106941,ddbf7fd2f124d8579ae2e79cd82c5630,Form,8,0,comprehension,NULL,q2,green
1548106941,ddbf7fd2f124d8579ae2e79cd82c5630,Form,8,0,comprehension,NULL,_REACTION_TIME_,6567
1548106941,ddbf7fd2f124d8579ae2e79cd82c5630,Form,9,0,outro,NULL,nativeq,yes
1548106941,ddbf7fd2f124d8579ae2e79cd82c5630,Form,9,0,outro,NULL,_REACTION_TIME_,39902
#
# Results on Monday January 21 2019 21:54:24 UTC.
# USER AGENT: Mozilla/5.0 (Windows NT 10.0; Win64; x64) AppleWebKit/537.36 (KHTML, like Gecko) Chrome/71.0.3578.98 Safari/537.36
# Design number was non-random = 54
#
# Columns below this comment are as follows:
# 1. Time results were received.
# 2. MD5 hash of participant's IP address.
# 3. Controller name.
# 4. Item number.
# 5. Element number.
# 6. Type.
# 7. Group.
# 8. Field name.
# 9. Field value.
1548107665,bbe87968f6acea7aedbd941bf95b1766,Form,0,0,intro,NULL,_REACTION_TIME_,5171
1548107665,bbe87968f6acea7aedbd941bf95b1766,Form,6,1,single-low,1,input,footstool
1548107665,bbe87968f6acea7aedbd941bf95b1766,Form,6,1,single-low,1,_REACTION_TIME_,13671
1548107665,bbe87968f6acea7aedbd941bf95b1766,Form,8,0,comprehension,NULL,q1,Alex
1548107665,bbe87968f6acea7aedbd941bf95b1766,Form,8,0,comprehension,NULL,q2,green
1548107665,bbe87968f6acea7aedbd941bf95b1766,Form,8,0,comprehension,NULL,_REACTION_TIME_,6048
1548107665,bbe87968f6acea7aedbd941bf95b1766,Form,9,0,outro,NULL,nativeq,yes
1548107665,bbe87968f6acea7aedbd941bf95b1766,Form,9,0,outro,NULL,_REACTION_TIME_,6085
#
# Results on Monday January 21 2019 22:07:48 UTC.
# USER AGENT: Mozilla/5.0 (Windows NT 6.3) AppleWebKit/537.36 (KHTML, like Gecko) Chrome/71.0.3578.98 Safari/537.36
# Design number was non-random = 55
#
# Columns below this comment are as follows:
# 1. Time results were received.
# 2. MD5 hash of participant's IP address.
# 3. Controller name.
# 4. Item number.
# 5. Element number.
# 6. Type.
# 7. Group.
# 8. Field name.
# 9. Field value.
1548108469,cfc58b1af53892ebc41744604750d59c,Form,0,0,intro,NULL,_REACTION_TIME_,11894
1548108469,cfc58b1af53892ebc41744604750d59c,Form,7,1,both-low,1,input,both
1548108469,cfc58b1af53892ebc41744604750d59c,Form,7,1,both-low,1,_REACTION_TIME_,26420
1548108469,cfc58b1af53892ebc41744604750d59c,Form,8,0,comprehension,NULL,q1,Alex
1548108469,cfc58b1af53892ebc41744604750d59c,Form,8,0,comprehension,NULL,q2,green
1548108469,cfc58b1af53892ebc41744604750d59c,Form,8,0,comprehension,NULL,_REACTION_TIME_,5865
1548108469,cfc58b1af53892ebc41744604750d59c,Form,9,0,outro,NULL,nativeq,yes
1548108469,cfc58b1af53892ebc41744604750d59c,Form,9,0,outro,NULL,_REACTION_TIME_,13503
#
# Results on Monday January 21 2019 22:07:56 UTC.
# USER AGENT: Mozilla/5.0 (Windows NT 10.0; WOW64; rv:64.0) Gecko/20100101 Firefox/64.0
# Design number was non-random = 55
#
# Columns below this comment are as follows:
# 1. Time results were received.
# 2. MD5 hash of participant's IP address.
# 3. Controller name.
# 4. Item number.
# 5. Element number.
# 6. Type.
# 7. Group.
# 8. Field name.
# 9. Field value.
1548108477,d7a32aa254c7337d5111bf29a90444c1,Form,0,0,intro,NULL,_REACTION_TIME_,3646
1548108477,d7a32aa254c7337d5111bf29a90444c1,Form,7,1,both-low,1,input,both
1548108477,d7a32aa254c7337d5111bf29a90444c1,Form,7,1,both-low,1,_REACTION_TIME_,9616
1548108477,d7a32aa254c7337d5111bf29a90444c1,Form,8,0,comprehension,NULL,q1,Sam
1548108477,d7a32aa254c7337d5111bf29a90444c1,Form,8,0,comprehension,NULL,q2,tan
1548108477,d7a32aa254c7337d5111bf29a90444c1,Form,8,0,comprehension,NULL,_REACTION_TIME_,8339
1548108477,d7a32aa254c7337d5111bf29a90444c1,Form,9,0,outro,NULL,nativeq,yes
1548108477,d7a32aa254c7337d5111bf29a90444c1,Form,9,0,outro,NULL,_REACTION_TIME_,3048
#
# Results on Monday January 21 2019 22:42:23 UTC.
# USER AGENT: Mozilla/5.0 (Windows NT 10.0; Win64; x64) AppleWebKit/537.36 (KHTML, like Gecko) Chrome/71.0.3578.98 Safari/537.36
# Design number was non-random = 57
#
# Columns below this comment are as follows:
# 1. Time results were received.
# 2. MD5 hash of participant's IP address.
# 3. Controller name.
# 4. Item number.
# 5. Element number.
# 6. Type.
# 7. Group.
# 8. Field name.
# 9. Field value.
1548110544,3dfb24b5da236b264dc56b33c14d6196,Form,0,0,intro,NULL,_REACTION_TIME_,3696
1548110544,3dfb24b5da236b264dc56b33c14d6196,Form,5,1,both-high,1,input,both
1548110544,3dfb24b5da236b264dc56b33c14d6196,Form,5,1,both-high,1,_REACTION_TIME_,12120
1548110544,3dfb24b5da236b264dc56b33c14d6196,Form,8,0,comprehension,NULL,q1,Alex
1548110544,3dfb24b5da236b264dc56b33c14d6196,Form,8,0,comprehension,NULL,q2,green
1548110544,3dfb24b5da236b264dc56b33c14d6196,Form,8,0,comprehension,NULL,_REACTION_TIME_,5177
1548110544,3dfb24b5da236b264dc56b33c14d6196,Form,9,0,outro,NULL,_REACTION_TIME_,89
#
# Results on Monday January 21 2019 23:15:36 UTC.
# USER AGENT: Mozilla/5.0 (X11; CrOS x86_64 11151.113.0) AppleWebKit/537.36 (KHTML, like Gecko) Chrome/71.0.3578.127 Safari/537.36
# Design number was non-random = 58
#
# Columns below this comment are as follows:
# 1. Time results were received.
# 2. MD5 hash of participant's IP address.
# 3. Controller name.
# 4. Item number.
# 5. Element number.
# 6. Type.
# 7. Group.
# 8. Field name.
# 9. Field value.
1548112537,efc5c7622201234c2e2cca9f9c191e0c,Form,0,0,intro,NULL,_REACTION_TIME_,7762
1548112537,efc5c7622201234c2e2cca9f9c191e0c,Form,6,1,single-low,1,input,onlyfootstool
1548112537,efc5c7622201234c2e2cca9f9c191e0c,Form,6,1,single-low,1,_REACTION_TIME_,21497
1548112537,efc5c7622201234c2e2cca9f9c191e0c,Form,8,0,comprehension,NULL,q1,Alex
1548112537,efc5c7622201234c2e2cca9f9c191e0c,Form,8,0,comprehension,NULL,q2,tan
1548112537,efc5c7622201234c2e2cca9f9c191e0c,Form,8,0,comprehension,NULL,_REACTION_TIME_,11717
1548112537,efc5c7622201234c2e2cca9f9c191e0c,Form,9,0,outro,NULL,nativeq,yes
1548112537,efc5c7622201234c2e2cca9f9c191e0c,Form,9,0,outro,NULL,_REACTION_TIME_,5843
#
# Results on Monday January 21 2019 23:39:43 UTC.
# USER AGENT: Mozilla/5.0 (Macintosh; Intel Mac OS X 10_12_3) AppleWebKit/537.36 (KHTML, like Gecko) Chrome/71.0.3578.98 Safari/537.36
# Design number was non-random = 59
#
# Columns below this comment are as follows:
# 1. Time results were received.
# 2. MD5 hash of participant's IP address.
# 3. Controller name.
# 4. Item number.
# 5. Element number.
# 6. Type.
# 7. Group.
# 8. Field name.
# 9. Field value.
1548113983,539d58912a83cd59538a4113eb0914bf,Form,0,0,intro,NULL,_REACTION_TIME_,4130
1548113983,539d58912a83cd59538a4113eb0914bf,Form,7,1,both-low,1,input,both
1548113983,539d58912a83cd59538a4113eb0914bf,Form,7,1,both-low,1,_REACTION_TIME_,8106
1548113983,539d58912a83cd59538a4113eb0914bf,Form,8,0,comprehension,NULL,q1,Alex
1548113983,539d58912a83cd59538a4113eb0914bf,Form,8,0,comprehension,NULL,q2,green
1548113983,539d58912a83cd59538a4113eb0914bf,Form,8,0,comprehension,NULL,_REACTION_TIME_,5819
1548113983,539d58912a83cd59538a4113eb0914bf,Form,9,0,outro,NULL,nativeq,yes
1548113983,539d58912a83cd59538a4113eb0914bf,Form,9,0,outro,NULL,_REACTION_TIME_,7475
#
# Results on Tuesday January 22 2019 00:02:20 UTC.
# USER AGENT: Mozilla/5.0 (X11; CrOS x86_64 11151.59.0) AppleWebKit/537.36 (KHTML, like Gecko) Chrome/71.0.3578.94 Safari/537.36
# Design number was non-random = 60
#
# Columns below this comment are as follows:
# 1. Time results were received.
# 2. MD5 hash of participant's IP address.
# 3. Controller name.
# 4. Item number.
# 5. Element number.
# 6. Type.
# 7. Group.
# 8. Field name.
# 9. Field value.
1548115340,1d53dcb355053344445706e1f4a90b05,Form,0,0,intro,NULL,_REACTION_TIME_,2453
1548115340,1d53dcb355053344445706e1f4a90b05,Form,4,1,single-high,1,input,chair
1548115340,1d53dcb355053344445706e1f4a90b05,Form,4,1,single-high,1,_REACTION_TIME_,4165
1548115340,1d53dcb355053344445706e1f4a90b05,Form,8,0,comprehension,NULL,q1,Alex
1548115340,1d53dcb355053344445706e1f4a90b05,Form,8,0,comprehension,NULL,q2,green
1548115340,1d53dcb355053344445706e1f4a90b05,Form,8,0,comprehension,NULL,_REACTION_TIME_,3756
1548115340,1d53dcb355053344445706e1f4a90b05,Form,9,0,outro,NULL,nativeq,yes
1548115340,1d53dcb355053344445706e1f4a90b05,Form,9,0,outro,NULL,_REACTION_TIME_,11906
#
# Results on Tuesday January 22 2019 00:04:47 UTC.
# USER AGENT: Mozilla/5.0 (Windows NT 10.0; Win64; x64) AppleWebKit/537.36 (KHTML, like Gecko) Chrome/71.0.3578.98 Safari/537.36
# Design number was non-random = 61
#
# Columns below this comment are as follows:
# 1. Time results were received.
# 2. MD5 hash of participant's IP address.
# 3. Controller name.
# 4. Item number.
# 5. Element number.
# 6. Type.
# 7. Group.
# 8. Field name.
# 9. Field value.
1548115488,1bee33683ef230b50a9cc880643644f7,Form,0,0,intro,NULL,_REACTION_TIME_,5011
1548115488,1bee33683ef230b50a9cc880643644f7,Form,5,1,both-high,1,input,both
1548115488,1bee33683ef230b50a9cc880643644f7,Form,5,1,both-high,1,_REACTION_TIME_,11234
1548115488,1bee33683ef230b50a9cc880643644f7,Form,8,0,comprehension,NULL,q1,Alex
1548115488,1bee33683ef230b50a9cc880643644f7,Form,8,0,comprehension,NULL,q2,green
1548115488,1bee33683ef230b50a9cc880643644f7,Form,8,0,comprehension,NULL,_REACTION_TIME_,10634
1548115488,1bee33683ef230b50a9cc880643644f7,Form,9,0,outro,NULL,nativeq,yes
1548115488,1bee33683ef230b50a9cc880643644f7,Form,9,0,outro,NULL,_REACTION_TIME_,10777
#
# Results on Tuesday January 22 2019 00:13:15 UTC.
# USER AGENT: Mozilla/5.0 (Windows NT 10.0; Win64; x64) AppleWebKit/537.36 (KHTML, like Gecko) Chrome/64.0.3282.140 Safari/537.36 Edge/17.17134
# Design number was non-random = 62
#
# Columns below this comment are as follows:
# 1. Time results were received.
# 2. MD5 hash of participant's IP address.
# 3. Controller name.
# 4. Item number.
# 5. Element number.
# 6. Type.
# 7. Group.
# 8. Field name.
# 9. Field value.
1548115996,8387d1bb56d1202dfad2272d26ba2301,Form,0,0,intro,NULL,_REACTION_TIME_,7247
1548115996,8387d1bb56d1202dfad2272d26ba2301,Form,6,1,single-low,1,input,onlyfootstool
1548115996,8387d1bb56d1202dfad2272d26ba2301,Form,6,1,single-low,1,_REACTION_TIME_,34072
1548115996,8387d1bb56d1202dfad2272d26ba2301,Form,8,0,comprehension,NULL,q1,Alex
1548115996,8387d1bb56d1202dfad2272d26ba2301,Form,8,0,comprehension,NULL,q2,green
1548115996,8387d1bb56d1202dfad2272d26ba2301,Form,8,0,comprehension,NULL,_REACTION_TIME_,10412
1548115996,8387d1bb56d1202dfad2272d26ba2301,Form,9,0,outro,NULL,nativeq,yes
1548115996,8387d1bb56d1202dfad2272d26ba2301,Form,9,0,outro,NULL,_REACTION_TIME_,5839
#
# Results on Tuesday January 22 2019 02:19:41 UTC.
# USER AGENT: Mozilla/5.0 (Windows NT 10.0; Win64; x64) AppleWebKit/537.36 (KHTML, like Gecko) Chrome/71.0.3578.98 Safari/537.36
# Design number was non-random = 63
#
# Columns below this comment are as follows:
# 1. Time results were received.
# 2. MD5 hash of participant's IP address.
# 3. Controller name.
# 4. Item number.
# 5. Element number.
# 6. Type.
# 7. Group.
# 8. Field name.
# 9. Field value.
1548123582,12a5a797fe7e1a9a24c56ef932bed9d8,Form,0,0,intro,NULL,_REACTION_TIME_,4488
1548123582,12a5a797fe7e1a9a24c56ef932bed9d8,Form,7,1,both-low,1,input,chair
1548123582,12a5a797fe7e1a9a24c56ef932bed9d8,Form,7,1,both-low,1,_REACTION_TIME_,13014
1548123582,12a5a797fe7e1a9a24c56ef932bed9d8,Form,8,0,comprehension,NULL,q1,Alex
1548123582,12a5a797fe7e1a9a24c56ef932bed9d8,Form,8,0,comprehension,NULL,q2,green
1548123582,12a5a797fe7e1a9a24c56ef932bed9d8,Form,8,0,comprehension,NULL,_REACTION_TIME_,4286
1548123582,12a5a797fe7e1a9a24c56ef932bed9d8,Form,9,0,outro,NULL,nativeq,yes
1548123582,12a5a797fe7e1a9a24c56ef932bed9d8,Form,9,0,outro,NULL,_REACTION_TIME_,11247
#
# Results on Tuesday January 22 2019 03:09:48 UTC.
# USER AGENT: Mozilla/5.0 (X11; CrOS x86_64 11151.59.0) AppleWebKit/537.36 (KHTML, like Gecko) Chrome/71.0.3578.94 Safari/537.36
# Design number was non-random = 64
#
# Columns below this comment are as follows:
# 1. Time results were received.
# 2. MD5 hash of participant's IP address.
# 3. Controller name.
# 4. Item number.
# 5. Element number.
# 6. Type.
# 7. Group.
# 8. Field name.
# 9. Field value.
1548126589,1b49ab19f42d2999ad0e24fa8c0ccce0,Form,0,0,intro,NULL,_REACTION_TIME_,24021
1548126589,1b49ab19f42d2999ad0e24fa8c0ccce0,Form,4,1,single-high,1,input,onlychair
1548126589,1b49ab19f42d2999ad0e24fa8c0ccce0,Form,4,1,single-high,1,_REACTION_TIME_,22309
1548126589,1b49ab19f42d2999ad0e24fa8c0ccce0,Form,8,0,comprehension,NULL,q1,Alex
1548126589,1b49ab19f42d2999ad0e24fa8c0ccce0,Form,8,0,comprehension,NULL,q2,green
1548126589,1b49ab19f42d2999ad0e24fa8c0ccce0,Form,8,0,comprehension,NULL,_REACTION_TIME_,7320
1548126589,1b49ab19f42d2999ad0e24fa8c0ccce0,Form,9,0,outro,NULL,nativeq,yes
1548126589,1b49ab19f42d2999ad0e24fa8c0ccce0,Form,9,0,outro,NULL,_REACTION_TIME_,12881
#
# Results on Tuesday January 22 2019 03:30:15 UTC.
# USER AGENT: Mozilla/5.0 (Windows NT 6.1; Win64; x64; rv:64.0) Gecko/20100101 Firefox/64.0
# Design number was non-random = 65
#
# Columns below this comment are as follows:
# 1. Time results were received.
# 2. MD5 hash of participant's IP address.
# 3. Controller name.
# 4. Item number.
# 5. Element number.
# 6. Type.
# 7. Group.
# 8. Field name.
# 9. Field value.
1548127816,b31ff1ec5ed76aa2745e13b4afa3f0d2,Form,0,0,intro,NULL,_REACTION_TIME_,7040
1548127816,b31ff1ec5ed76aa2745e13b4afa3f0d2,Form,5,1,both-high,1,input,both
1548127816,b31ff1ec5ed76aa2745e13b4afa3f0d2,Form,5,1,both-high,1,_REACTION_TIME_,16473
1548127816,b31ff1ec5ed76aa2745e13b4afa3f0d2,Form,8,0,comprehension,NULL,q1,Alex
1548127816,b31ff1ec5ed76aa2745e13b4afa3f0d2,Form,8,0,comprehension,NULL,q2,green
1548127816,b31ff1ec5ed76aa2745e13b4afa3f0d2,Form,8,0,comprehension,NULL,_REACTION_TIME_,15202
1548127816,b31ff1ec5ed76aa2745e13b4afa3f0d2,Form,9,0,outro,NULL,nativeq,yes
1548127816,b31ff1ec5ed76aa2745e13b4afa3f0d2,Form,9,0,outro,NULL,_REACTION_TIME_,11716
#
# Results on Tuesday January 22 2019 06:32:54 UTC.
# USER AGENT: Mozilla/5.0 (Windows NT 10.0; Win64; x64) AppleWebKit/537.36 (KHTML, like Gecko) Chrome/71.0.3578.98 Safari/537.36
# Design number was non-random = 66
#
# Columns below this comment are as follows:
# 1. Time results were received.
# 2. MD5 hash of participant's IP address.
# 3. Controller name.
# 4. Item number.
# 5. Element number.
# 6. Type.
# 7. Group.
# 8. Field name.
# 9. Field value.
1548138775,650d83a841fab323f30dd9593474ee0e,Form,0,0,intro,NULL,_REACTION_TIME_,8417
1548138775,650d83a841fab323f30dd9593474ee0e,Form,6,1,single-low,1,input,footstool
1548138775,650d83a841fab323f30dd9593474ee0e,Form,6,1,single-low,1,_REACTION_TIME_,16888
1548138775,650d83a841fab323f30dd9593474ee0e,Form,8,0,comprehension,NULL,q1,Alex
1548138775,650d83a841fab323f30dd9593474ee0e,Form,8,0,comprehension,NULL,q2,tan
1548138775,650d83a841fab323f30dd9593474ee0e,Form,8,0,comprehension,NULL,_REACTION_TIME_,7178
1548138775,650d83a841fab323f30dd9593474ee0e,Form,9,0,outro,NULL,nativeq,yes
1548138775,650d83a841fab323f30dd9593474ee0e,Form,9,0,outro,NULL,_REACTION_TIME_,15556
#
# Results on Tuesday January 22 2019 07:12:53 UTC.
# USER AGENT: Mozilla/5.0 (Windows NT 10.0; Win64; x64) AppleWebKit/537.36 (KHTML, like Gecko) Chrome/71.0.3578.98 Safari/537.36
# Design number was non-random = 67
#
# Columns below this comment are as follows:
# 1. Time results were received.
# 2. MD5 hash of participant's IP address.
# 3. Controller name.
# 4. Item number.
# 5. Element number.
# 6. Type.
# 7. Group.
# 8. Field name.
# 9. Field value.
1548141174,74a83cd9136e6c423df3cca29c24309a,Form,0,0,intro,NULL,_REACTION_TIME_,1606
1548141174,74a83cd9136e6c423df3cca29c24309a,Form,7,1,both-low,1,input,both
1548141174,74a83cd9136e6c423df3cca29c24309a,Form,7,1,both-low,1,_REACTION_TIME_,10812
1548141174,74a83cd9136e6c423df3cca29c24309a,Form,8,0,comprehension,NULL,q1,Alex
1548141174,74a83cd9136e6c423df3cca29c24309a,Form,8,0,comprehension,NULL,q2,green
1548141174,74a83cd9136e6c423df3cca29c24309a,Form,8,0,comprehension,NULL,_REACTION_TIME_,4301
1548141174,74a83cd9136e6c423df3cca29c24309a,Form,9,0,outro,NULL,nativeq,yes
1548141174,74a83cd9136e6c423df3cca29c24309a,Form,9,0,outro,NULL,_REACTION_TIME_,5774
#
# Results on Tuesday January 22 2019 07:13:14 UTC.
# USER AGENT: Mozilla/5.0 (Windows NT 6.1; WOW64; Trident/7.0; rv:11.0) like Gecko
# Design number was non-random = 67
#
# Columns below this comment are as follows:
# 1. Time results were received.
# 2. MD5 hash of participant's IP address.
# 3. Controller name.
# 4. Item number.
# 5. Element number.
# 6. Type.
# 7. Group.
# 8. Field name.
# 9. Field value.
1548141194,30d0d22adfacb24c13e2eb3dee1b3d68,Form,0,0,intro,NULL,_REACTION_TIME_,2987
1548141194,30d0d22adfacb24c13e2eb3dee1b3d68,Form,7,1,both-low,1,input,onlyfootstool
1548141194,30d0d22adfacb24c13e2eb3dee1b3d68,Form,7,1,both-low,1,_REACTION_TIME_,24482
1548141194,30d0d22adfacb24c13e2eb3dee1b3d68,Form,8,0,comprehension,NULL,q1,Alex
1548141194,30d0d22adfacb24c13e2eb3dee1b3d68,Form,8,0,comprehension,NULL,_REACTION_TIME_,3210
1548141194,30d0d22adfacb24c13e2eb3dee1b3d68,Form,9,0,outro,NULL,nativeq,yes
1548141194,30d0d22adfacb24c13e2eb3dee1b3d68,Form,9,0,outro,NULL,_REACTION_TIME_,5705
#
# Results on Tuesday January 22 2019 07:13:41 UTC.
# USER AGENT: Mozilla/5.0 (Windows NT 10.0; Win64; x64) AppleWebKit/537.36 (KHTML, like Gecko) Chrome/71.0.3578.98 Safari/537.36
# Design number was non-random = 68
#
# Columns below this comment are as follows:
# 1. Time results were received.
# 2. MD5 hash of participant's IP address.
# 3. Controller name.
# 4. Item number.
# 5. Element number.
# 6. Type.
# 7. Group.
# 8. Field name.
# 9. Field value.
1548141221,74a83cd9136e6c423df3cca29c24309a,Form,0,0,intro,NULL,_REACTION_TIME_,1839
1548141221,74a83cd9136e6c423df3cca29c24309a,Form,4,1,single-high,1,input,onlychair
1548141221,74a83cd9136e6c423df3cca29c24309a,Form,4,1,single-high,1,_REACTION_TIME_,12275
1548141221,74a83cd9136e6c423df3cca29c24309a,Form,8,0,comprehension,NULL,q1,Alex
1548141221,74a83cd9136e6c423df3cca29c24309a,Form,8,0,comprehension,NULL,q2,green
1548141221,74a83cd9136e6c423df3cca29c24309a,Form,8,0,comprehension,NULL,_REACTION_TIME_,5066
1548141221,74a83cd9136e6c423df3cca29c24309a,Form,9,0,outro,NULL,nativeq,yes
1548141221,74a83cd9136e6c423df3cca29c24309a,Form,9,0,outro,NULL,_REACTION_TIME_,7194
#
# Results on Tuesday January 22 2019 07:13:55 UTC.
# USER AGENT: Mozilla/5.0 (Windows NT 6.1; WOW64; Trident/7.0; rv:11.0) like Gecko
# Design number was non-random = 69
#
# Columns below this comment are as follows:
# 1. Time results were received.
# 2. MD5 hash of participant's IP address.
# 3. Controller name.
# 4. Item number.
# 5. Element number.
# 6. Type.
# 7. Group.
# 8. Field name.
# 9. Field value.
1548141235,30d0d22adfacb24c13e2eb3dee1b3d68,Form,0,0,intro,NULL,_REACTION_TIME_,1691
1548141235,30d0d22adfacb24c13e2eb3dee1b3d68,Form,5,1,both-high,1,_REACTION_TIME_,4893
1548141235,30d0d22adfacb24c13e2eb3dee1b3d68,Form,8,0,comprehension,NULL,q1,Alex
1548141235,30d0d22adfacb24c13e2eb3dee1b3d68,Form,8,0,comprehension,NULL,_REACTION_TIME_,2863
1548141235,30d0d22adfacb24c13e2eb3dee1b3d68,Form,9,0,outro,NULL,nativeq,yes
1548141235,30d0d22adfacb24c13e2eb3dee1b3d68,Form,9,0,outro,NULL,_REACTION_TIME_,5946
#
# Results on Tuesday January 22 2019 07:14:08 UTC.
# USER AGENT: Mozilla/5.0 (Linux; Android 7.1.1; Z557BL) AppleWebKit/537.36 (KHTML, like Gecko) Chrome/71.0.3578.99 Mobile Safari/537.36
# Design number was non-random = 69
#
# Columns below this comment are as follows:
# 1. Time results were received.
# 2. MD5 hash of participant's IP address.
# 3. Controller name.
# 4. Item number.
# 5. Element number.
# 6. Type.
# 7. Group.
# 8. Field name.
# 9. Field value.
1548141249,06c32964c57fab85e798ac056d10bf4f,Form,0,0,intro,NULL,_REACTION_TIME_,1145
1548141249,06c32964c57fab85e798ac056d10bf4f,Form,5,1,both-high,1,input,both
1548141249,06c32964c57fab85e798ac056d10bf4f,Form,5,1,both-high,1,_REACTION_TIME_,12968
1548141249,06c32964c57fab85e798ac056d10bf4f,Form,8,0,comprehension,NULL,q1,Alex
1548141249,06c32964c57fab85e798ac056d10bf4f,Form,8,0,comprehension,NULL,q2,green
1548141249,06c32964c57fab85e798ac056d10bf4f,Form,8,0,comprehension,NULL,_REACTION_TIME_,3987
1548141249,06c32964c57fab85e798ac056d10bf4f,Form,9,0,outro,NULL,nativeq,yes
1548141249,06c32964c57fab85e798ac056d10bf4f,Form,9,0,outro,NULL,_REACTION_TIME_,6142
#
# Results on Tuesday January 22 2019 07:14:27 UTC.
# USER AGENT: Mozilla/5.0 (Windows NT 10.0; Win64; x64) AppleWebKit/537.36 (KHTML, like Gecko) Chrome/71.0.3578.98 Safari/537.36
# Design number was non-random = 70
#
# Columns below this comment are as follows:
# 1. Time results were received.
# 2. MD5 hash of participant's IP address.
# 3. Controller name.
# 4. Item number.
# 5. Element number.
# 6. Type.
# 7. Group.
# 8. Field name.
# 9. Field value.
1548141268,f3089d65ab875fd6ef9f76d0c2016017,Form,0,0,intro,NULL,_REACTION_TIME_,8417
1548141268,f3089d65ab875fd6ef9f76d0c2016017,Form,6,1,single-low,1,input,footstool
1548141268,f3089d65ab875fd6ef9f76d0c2016017,Form,6,1,single-low,1,_REACTION_TIME_,11182
1548141268,f3089d65ab875fd6ef9f76d0c2016017,Form,8,0,comprehension,NULL,q1,Alex
1548141268,f3089d65ab875fd6ef9f76d0c2016017,Form,8,0,comprehension,NULL,q2,green
1548141268,f3089d65ab875fd6ef9f76d0c2016017,Form,8,0,comprehension,NULL,_REACTION_TIME_,5335
1548141268,f3089d65ab875fd6ef9f76d0c2016017,Form,9,0,outro,NULL,nativeq,yes
1548141268,f3089d65ab875fd6ef9f76d0c2016017,Form,9,0,outro,NULL,_REACTION_TIME_,4856
#
# Results on Tuesday January 22 2019 07:15:46 UTC.
# USER AGENT: Mozilla/5.0 (Windows NT 10.0) AppleWebKit/537.36 (KHTML, like Gecko) Chrome/71.0.3578.98 Safari/537.36
# Design number was non-random = 73
#
# Columns below this comment are as follows:
# 1. Time results were received.
# 2. MD5 hash of participant's IP address.
# 3. Controller name.
# 4. Item number.
# 5. Element number.
# 6. Type.
# 7. Group.
# 8. Field name.
# 9. Field value.
1548141346,3501654f926297ab383cfd052ce3e9c6,Form,0,0,intro,NULL,_REACTION_TIME_,1844
1548141346,3501654f926297ab383cfd052ce3e9c6,Form,5,1,both-high,1,input,both
1548141346,3501654f926297ab383cfd052ce3e9c6,Form,5,1,both-high,1,_REACTION_TIME_,12233
1548141346,3501654f926297ab383cfd052ce3e9c6,Form,8,0,comprehension,NULL,q1,Sam
1548141346,3501654f926297ab383cfd052ce3e9c6,Form,8,0,comprehension,NULL,q2,green
1548141346,3501654f926297ab383cfd052ce3e9c6,Form,8,0,comprehension,NULL,_REACTION_TIME_,6054
1548141346,3501654f926297ab383cfd052ce3e9c6,Form,9,0,outro,NULL,nativeq,yes
1548141346,3501654f926297ab383cfd052ce3e9c6,Form,9,0,outro,NULL,_REACTION_TIME_,11984
#
# Results on Tuesday January 22 2019 07:15:48 UTC.
# USER AGENT: Mozilla/5.0 (Linux; Android 7.1.1; Z557BL) AppleWebKit/537.36 (KHTML, like Gecko) Chrome/71.0.3578.99 Mobile Safari/537.36
# Design number was non-random = 73
#
# Columns below this comment are as follows:
# 1. Time results were received.
# 2. MD5 hash of participant's IP address.
# 3. Controller name.
# 4. Item number.
# 5. Element number.
# 6. Type.
# 7. Group.
# 8. Field name.
# 9. Field value.
1548141349,06c32964c57fab85e798ac056d10bf4f,Form,0,0,intro,NULL,_REACTION_TIME_,1192
1548141349,06c32964c57fab85e798ac056d10bf4f,Form,5,1,both-high,1,input,both
1548141349,06c32964c57fab85e798ac056d10bf4f,Form,5,1,both-high,1,_REACTION_TIME_,3474
1548141349,06c32964c57fab85e798ac056d10bf4f,Form,8,0,comprehension,NULL,q1,Alex
1548141349,06c32964c57fab85e798ac056d10bf4f,Form,8,0,comprehension,NULL,q2,green
1548141349,06c32964c57fab85e798ac056d10bf4f,Form,8,0,comprehension,NULL,_REACTION_TIME_,3963
1548141349,06c32964c57fab85e798ac056d10bf4f,Form,9,0,outro,NULL,nativeq,yes
1548141349,06c32964c57fab85e798ac056d10bf4f,Form,9,0,outro,NULL,_REACTION_TIME_,5297
#
# Results on Tuesday January 22 2019 07:15:49 UTC.
# USER AGENT: Mozilla/5.0 (Windows NT 10.0; Win64; x64) AppleWebKit/537.36 (KHTML, like Gecko) Chrome/71.0.3578.98 Safari/537.36
# Design number was non-random = 73
#
# Columns below this comment are as follows:
# 1. Time results were received.
# 2. MD5 hash of participant's IP address.
# 3. Controller name.
# 4. Item number.
# 5. Element number.
# 6. Type.
# 7. Group.
# 8. Field name.
# 9. Field value.
1548141350,74a83cd9136e6c423df3cca29c24309a,Form,0,0,intro,NULL,_REACTION_TIME_,1798
1548141350,74a83cd9136e6c423df3cca29c24309a,Form,5,1,both-high,1,input,both
1548141350,74a83cd9136e6c423df3cca29c24309a,Form,5,1,both-high,1,_REACTION_TIME_,6189
1548141350,74a83cd9136e6c423df3cca29c24309a,Form,8,0,comprehension,NULL,q1,Alex
1548141350,74a83cd9136e6c423df3cca29c24309a,Form,8,0,comprehension,NULL,q2,green
1548141350,74a83cd9136e6c423df3cca29c24309a,Form,8,0,comprehension,NULL,_REACTION_TIME_,4592
1548141350,74a83cd9136e6c423df3cca29c24309a,Form,9,0,outro,NULL,nativeq,yes
1548141350,74a83cd9136e6c423df3cca29c24309a,Form,9,0,outro,NULL,_REACTION_TIME_,5801
#
# Results on Tuesday January 22 2019 07:16:12 UTC.
# USER AGENT: Mozilla/5.0 (Windows NT 6.1) AppleWebKit/537.36 (KHTML, like Gecko) Chrome/71.0.3578.98 Safari/537.36
# Design number was non-random = 73
#
# Columns below this comment are as follows:
# 1. Time results were received.
# 2. MD5 hash of participant's IP address.
# 3. Controller name.
# 4. Item number.
# 5. Element number.
# 6. Type.
# 7. Group.
# 8. Field name.
# 9. Field value.
1548141373,e3c67a85108bd48a8e73db6b4bf910e1,Form,0,0,intro,NULL,_REACTION_TIME_,1899
1548141373,e3c67a85108bd48a8e73db6b4bf910e1,Form,5,1,both-high,1,input,footstool
1548141373,e3c67a85108bd48a8e73db6b4bf910e1,Form,5,1,both-high,1,_REACTION_TIME_,20187
1548141373,e3c67a85108bd48a8e73db6b4bf910e1,Form,8,0,comprehension,NULL,q1,Alex
1548141373,e3c67a85108bd48a8e73db6b4bf910e1,Form,8,0,comprehension,NULL,q2,green
1548141373,e3c67a85108bd48a8e73db6b4bf910e1,Form,8,0,comprehension,NULL,_REACTION_TIME_,7287
1548141373,e3c67a85108bd48a8e73db6b4bf910e1,Form,9,0,outro,NULL,nativeq,yes
1548141373,e3c67a85108bd48a8e73db6b4bf910e1,Form,9,0,outro,NULL,_REACTION_TIME_,18953
#
# Results on Tuesday January 22 2019 07:16:31 UTC.
# USER AGENT: Mozilla/5.0 (Windows NT 10.0; Win64; x64) AppleWebKit/537.36 (KHTML, like Gecko) Chrome/71.0.3578.98 Safari/537.36
# Design number was non-random = 76
#
# Columns below this comment are as follows:
# 1. Time results were received.
# 2. MD5 hash of participant's IP address.
# 3. Controller name.
# 4. Item number.
# 5. Element number.
# 6. Type.
# 7. Group.
# 8. Field name.
# 9. Field value.
1548141392,74a83cd9136e6c423df3cca29c24309a,Form,0,0,intro,NULL,_REACTION_TIME_,1699
1548141392,74a83cd9136e6c423df3cca29c24309a,Form,4,1,single-high,1,input,onlychair
1548141392,74a83cd9136e6c423df3cca29c24309a,Form,4,1,single-high,1,_REACTION_TIME_,5090
1548141392,74a83cd9136e6c423df3cca29c24309a,Form,8,0,comprehension,NULL,q1,Alex
1548141392,74a83cd9136e6c423df3cca29c24309a,Form,8,0,comprehension,NULL,q2,green
1548141392,74a83cd9136e6c423df3cca29c24309a,Form,8,0,comprehension,NULL,_REACTION_TIME_,4192
1548141392,74a83cd9136e6c423df3cca29c24309a,Form,9,0,outro,NULL,nativeq,yes
1548141392,74a83cd9136e6c423df3cca29c24309a,Form,9,0,outro,NULL,_REACTION_TIME_,5638
#
# Results on Tuesday January 22 2019 07:16:34 UTC.
# USER AGENT: Mozilla/5.0 (Linux; Android 7.1.1; Z557BL) AppleWebKit/537.36 (KHTML, like Gecko) Chrome/71.0.3578.99 Mobile Safari/537.36
# Design number was non-random = 76
#
# Columns below this comment are as follows:
# 1. Time results were received.
# 2. MD5 hash of participant's IP address.
# 3. Controller name.
# 4. Item number.
# 5. Element number.
# 6. Type.
# 7. Group.
# 8. Field name.
# 9. Field value.
1548141394,06c32964c57fab85e798ac056d10bf4f,Form,0,0,intro,NULL,_REACTION_TIME_,1124
1548141394,06c32964c57fab85e798ac056d10bf4f,Form,4,1,single-high,1,input,chair
1548141394,06c32964c57fab85e798ac056d10bf4f,Form,4,1,single-high,1,_REACTION_TIME_,3465
1548141394,06c32964c57fab85e798ac056d10bf4f,Form,8,0,comprehension,NULL,q1,Alex
1548141394,06c32964c57fab85e798ac056d10bf4f,Form,8,0,comprehension,NULL,q2,green
1548141394,06c32964c57fab85e798ac056d10bf4f,Form,8,0,comprehension,NULL,_REACTION_TIME_,4596
1548141394,06c32964c57fab85e798ac056d10bf4f,Form,9,0,outro,NULL,nativeq,yes
1548141394,06c32964c57fab85e798ac056d10bf4f,Form,9,0,outro,NULL,_REACTION_TIME_,10105
#
# Results on Tuesday January 22 2019 07:17:09 UTC.
# USER AGENT: Mozilla/5.0 (Windows NT 10.0; Win64; x64) AppleWebKit/537.36 (KHTML, like Gecko) Chrome/71.0.3578.98 Safari/537.36
# Design number was non-random = 79
#
# Columns below this comment are as follows:
# 1. Time results were received.
# 2. MD5 hash of participant's IP address.
# 3. Controller name.
# 4. Item number.
# 5. Element number.
# 6. Type.
# 7. Group.
# 8. Field name.
# 9. Field value.
1548141429,74a83cd9136e6c423df3cca29c24309a,Form,0,0,intro,NULL,_REACTION_TIME_,1934
1548141429,74a83cd9136e6c423df3cca29c24309a,Form,7,1,both-low,1,input,both
1548141429,74a83cd9136e6c423df3cca29c24309a,Form,7,1,both-low,1,_REACTION_TIME_,4451
1548141429,74a83cd9136e6c423df3cca29c24309a,Form,8,0,comprehension,NULL,q1,Alex
1548141429,74a83cd9136e6c423df3cca29c24309a,Form,8,0,comprehension,NULL,q2,green
1548141429,74a83cd9136e6c423df3cca29c24309a,Form,8,0,comprehension,NULL,_REACTION_TIME_,4289
1548141429,74a83cd9136e6c423df3cca29c24309a,Form,9,0,outro,NULL,nativeq,yes
1548141429,74a83cd9136e6c423df3cca29c24309a,Form,9,0,outro,NULL,_REACTION_TIME_,7405
#
# Results on Tuesday January 22 2019 07:17:19 UTC.
# USER AGENT: Mozilla/5.0 (Linux; Android 7.1.1; Z557BL) AppleWebKit/537.36 (KHTML, like Gecko) Chrome/71.0.3578.99 Mobile Safari/537.36
# Design number was non-random = 79
#
# Columns below this comment are as follows:
# 1. Time results were received.
# 2. MD5 hash of participant's IP address.
# 3. Controller name.
# 4. Item number.
# 5. Element number.
# 6. Type.
# 7. Group.
# 8. Field name.
# 9. Field value.
1548141440,06c32964c57fab85e798ac056d10bf4f,Form,0,0,intro,NULL,_REACTION_TIME_,1143
1548141440,06c32964c57fab85e798ac056d10bf4f,Form,7,1,both-low,1,_REACTION_TIME_,1975
1548141440,06c32964c57fab85e798ac056d10bf4f,Form,8,0,comprehension,NULL,q1,Alex
1548141440,06c32964c57fab85e798ac056d10bf4f,Form,8,0,comprehension,NULL,q2,green
1548141440,06c32964c57fab85e798ac056d10bf4f,Form,8,0,comprehension,NULL,_REACTION_TIME_,6536
1548141440,06c32964c57fab85e798ac056d10bf4f,Form,9,0,outro,NULL,nativeq,yes
1548141440,06c32964c57fab85e798ac056d10bf4f,Form,9,0,outro,NULL,_REACTION_TIME_,11961
#
# Results on Tuesday January 22 2019 07:17:55 UTC.
# USER AGENT: Mozilla/5.0 (Linux; Android 7.1.1; Z557BL) AppleWebKit/537.36 (KHTML, like Gecko) Chrome/71.0.3578.99 Mobile Safari/537.36
# Design number was non-random = 81
#
# Columns below this comment are as follows:
# 1. Time results were received.
# 2. MD5 hash of participant's IP address.
# 3. Controller name.
# 4. Item number.
# 5. Element number.
# 6. Type.
# 7. Group.
# 8. Field name.
# 9. Field value.
1548141475,06c32964c57fab85e798ac056d10bf4f,Form,0,0,intro,NULL,_REACTION_TIME_,1115
1548141475,06c32964c57fab85e798ac056d10bf4f,Form,5,1,both-high,1,input,both
1548141475,06c32964c57fab85e798ac056d10bf4f,Form,5,1,both-high,1,_REACTION_TIME_,3462
1548141475,06c32964c57fab85e798ac056d10bf4f,Form,8,0,comprehension,NULL,q1,Alex
1548141475,06c32964c57fab85e798ac056d10bf4f,Form,8,0,comprehension,NULL,q2,green
1548141475,06c32964c57fab85e798ac056d10bf4f,Form,8,0,comprehension,NULL,_REACTION_TIME_,5570
1548141475,06c32964c57fab85e798ac056d10bf4f,Form,9,0,outro,NULL,nativeq,yes
1548141475,06c32964c57fab85e798ac056d10bf4f,Form,9,0,outro,NULL,_REACTION_TIME_,3880
#
# Results on Tuesday January 22 2019 07:18:15 UTC.
# USER AGENT: Mozilla/5.0 (Windows NT 6.1; WOW64; Trident/7.0; rv:11.0) like Gecko
# Design number was non-random = 82
#
# Columns below this comment are as follows:
# 1. Time results were received.
# 2. MD5 hash of participant's IP address.
# 3. Controller name.
# 4. Item number.
# 5. Element number.
# 6. Type.
# 7. Group.
# 8. Field name.
# 9. Field value.
1548141496,30d0d22adfacb24c13e2eb3dee1b3d68,Form,0,0,intro,NULL,_REACTION_TIME_,2574
1548141496,30d0d22adfacb24c13e2eb3dee1b3d68,Form,6,1,single-low,1,_REACTION_TIME_,2604
1548141496,30d0d22adfacb24c13e2eb3dee1b3d68,Form,8,0,comprehension,NULL,q1,Alex
1548141496,30d0d22adfacb24c13e2eb3dee1b3d68,Form,8,0,comprehension,NULL,_REACTION_TIME_,2291
1548141496,30d0d22adfacb24c13e2eb3dee1b3d68,Form,9,0,outro,NULL,nativeq,yes
1548141496,30d0d22adfacb24c13e2eb3dee1b3d68,Form,9,0,outro,NULL,_REACTION_TIME_,5202
#
# Results on Tuesday January 22 2019 07:18:16 UTC.
# USER AGENT: Mozilla/5.0 (Windows NT 10.0; Win64; x64; rv:64.0) Gecko/20100101 Firefox/64.0
# Design number was non-random = 76
#
# Columns below this comment are as follows:
# 1. Time results were received.
# 2. MD5 hash of participant's IP address.
# 3. Controller name.
# 4. Item number.
# 5. Element number.
# 6. Type.
# 7. Group.
# 8. Field name.
# 9. Field value.
1548141496,df611255ccede8bdba95d06ae7faace0,Form,0,0,intro,NULL,_REACTION_TIME_,96180
1548141496,df611255ccede8bdba95d06ae7faace0,Form,4,1,single-high,1,input,chair
1548141496,df611255ccede8bdba95d06ae7faace0,Form,4,1,single-high,1,_REACTION_TIME_,11341
1548141496,df611255ccede8bdba95d06ae7faace0,Form,8,0,comprehension,NULL,q1,Alex
1548141496,df611255ccede8bdba95d06ae7faace0,Form,8,0,comprehension,NULL,q2,green
1548141496,df611255ccede8bdba95d06ae7faace0,Form,8,0,comprehension,NULL,_REACTION_TIME_,4928
1548141496,df611255ccede8bdba95d06ae7faace0,Form,9,0,outro,NULL,nativeq,yes
1548141496,df611255ccede8bdba95d06ae7faace0,Form,9,0,outro,NULL,_REACTION_TIME_,11968
#
# Results on Tuesday January 22 2019 07:19:26 UTC.
# USER AGENT: Mozilla/5.0 (Windows NT 10.0; Win64; x64; rv:64.0) Gecko/20100101 Firefox/64.0
# Design number was non-random = 84
#
# Columns below this comment are as follows:
# 1. Time results were received.
# 2. MD5 hash of participant's IP address.
# 3. Controller name.
# 4. Item number.
# 5. Element number.
# 6. Type.
# 7. Group.
# 8. Field name.
# 9. Field value.
1548141567,df611255ccede8bdba95d06ae7faace0,Form,0,0,intro,NULL,_REACTION_TIME_,2029
1548141567,df611255ccede8bdba95d06ae7faace0,Form,4,1,single-high,1,input,both
1548141567,df611255ccede8bdba95d06ae7faace0,Form,4,1,single-high,1,_REACTION_TIME_,10741
1548141567,df611255ccede8bdba95d06ae7faace0,Form,8,0,comprehension,NULL,q1,Alex
1548141567,df611255ccede8bdba95d06ae7faace0,Form,8,0,comprehension,NULL,q2,green
1548141567,df611255ccede8bdba95d06ae7faace0,Form,8,0,comprehension,NULL,_REACTION_TIME_,6280
1548141567,df611255ccede8bdba95d06ae7faace0,Form,9,0,outro,NULL,nativeq,yes
1548141567,df611255ccede8bdba95d06ae7faace0,Form,9,0,outro,NULL,_REACTION_TIME_,10165
#
# Results on Tuesday January 22 2019 07:19:51 UTC.
# USER AGENT: Mozilla/5.0 (Windows NT 6.1) AppleWebKit/537.36 (KHTML, like Gecko) Chrome/71.0.3578.98 Safari/537.36
# Design number was non-random = 84
#
# Columns below this comment are as follows:
# 1. Time results were received.
# 2. MD5 hash of participant's IP address.
# 3. Controller name.
# 4. Item number.
# 5. Element number.
# 6. Type.
# 7. Group.
# 8. Field name.
# 9. Field value.
1548141592,11f174d38abed8edfeb2bc8c7c2ace8d,Form,0,0,intro,NULL,_REACTION_TIME_,1533
1548141592,11f174d38abed8edfeb2bc8c7c2ace8d,Form,4,1,single-high,1,input,chair
1548141592,11f174d38abed8edfeb2bc8c7c2ace8d,Form,4,1,single-high,1,_REACTION_TIME_,10284
1548141592,11f174d38abed8edfeb2bc8c7c2ace8d,Form,8,0,comprehension,NULL,q1,Alex
1548141592,11f174d38abed8edfeb2bc8c7c2ace8d,Form,8,0,comprehension,NULL,q2,tan
1548141592,11f174d38abed8edfeb2bc8c7c2ace8d,Form,8,0,comprehension,NULL,_REACTION_TIME_,4334
1548141592,11f174d38abed8edfeb2bc8c7c2ace8d,Form,9,0,outro,NULL,nativeq,yes
1548141592,11f174d38abed8edfeb2bc8c7c2ace8d,Form,9,0,outro,NULL,_REACTION_TIME_,4688
#
# Results on Tuesday January 22 2019 07:20:36 UTC.
# USER AGENT: Mozilla/5.0 (Linux; Android 7.1.1; Z557BL) AppleWebKit/537.36 (KHTML, like Gecko) Chrome/71.0.3578.99 Mobile Safari/537.36
# Design number was non-random = 86
#
# Columns below this comment are as follows:
# 1. Time results were received.
# 2. MD5 hash of participant's IP address.
# 3. Controller name.
# 4. Item number.
# 5. Element number.
# 6. Type.
# 7. Group.
# 8. Field name.
# 9. Field value.
1548141636,06c32964c57fab85e798ac056d10bf4f,Form,0,0,intro,NULL,_REACTION_TIME_,1387
1548141636,06c32964c57fab85e798ac056d10bf4f,Form,6,1,single-low,1,input,footstool
1548141636,06c32964c57fab85e798ac056d10bf4f,Form,6,1,single-low,1,_REACTION_TIME_,3337
1548141636,06c32964c57fab85e798ac056d10bf4f,Form,8,0,comprehension,NULL,q1,Alex
1548141636,06c32964c57fab85e798ac056d10bf4f,Form,8,0,comprehension,NULL,q2,green
1548141636,06c32964c57fab85e798ac056d10bf4f,Form,8,0,comprehension,NULL,_REACTION_TIME_,3875
1548141636,06c32964c57fab85e798ac056d10bf4f,Form,9,0,outro,NULL,nativeq,yes
1548141636,06c32964c57fab85e798ac056d10bf4f,Form,9,0,outro,NULL,_REACTION_TIME_,3887
#
# Results on Tuesday January 22 2019 07:21:06 UTC.
# USER AGENT: Mozilla/5.0 (Windows NT 10.0; Win64; x64) AppleWebKit/537.36 (KHTML, like Gecko) Chrome/71.0.3578.98 Safari/537.36
# Design number was non-random = 86
#
# Columns below this comment are as follows:
# 1. Time results were received.
# 2. MD5 hash of participant's IP address.
# 3. Controller name.
# 4. Item number.
# 5. Element number.
# 6. Type.
# 7. Group.
# 8. Field name.
# 9. Field value.
1548141666,74a83cd9136e6c423df3cca29c24309a,Form,0,0,intro,NULL,_REACTION_TIME_,1629
1548141666,74a83cd9136e6c423df3cca29c24309a,Form,6,1,single-low,1,input,onlyfootstool
1548141666,74a83cd9136e6c423df3cca29c24309a,Form,6,1,single-low,1,_REACTION_TIME_,5427
1548141666,74a83cd9136e6c423df3cca29c24309a,Form,8,0,comprehension,NULL,q1,Alex
1548141666,74a83cd9136e6c423df3cca29c24309a,Form,8,0,comprehension,NULL,q2,green
1548141666,74a83cd9136e6c423df3cca29c24309a,Form,8,0,comprehension,NULL,_REACTION_TIME_,4283
1548141666,74a83cd9136e6c423df3cca29c24309a,Form,9,0,outro,NULL,nativeq,yes
1548141666,74a83cd9136e6c423df3cca29c24309a,Form,9,0,outro,NULL,_REACTION_TIME_,12416
#
# Results on Tuesday January 22 2019 07:21:23 UTC.
# USER AGENT: Mozilla/5.0 (Windows NT 10.0; Win64; x64; rv:64.0) Gecko/20100101 Firefox/64.0
# Design number was non-random = 86
#
# Columns below this comment are as follows:
# 1. Time results were received.
# 2. MD5 hash of participant's IP address.
# 3. Controller name.
# 4. Item number.
# 5. Element number.
# 6. Type.
# 7. Group.
# 8. Field name.
# 9. Field value.
1548141683,df611255ccede8bdba95d06ae7faace0,Form,0,0,intro,NULL,_REACTION_TIME_,1628
1548141683,df611255ccede8bdba95d06ae7faace0,Form,6,1,single-low,1,input,footstool
1548141683,df611255ccede8bdba95d06ae7faace0,Form,6,1,single-low,1,_REACTION_TIME_,16201
1548141683,df611255ccede8bdba95d06ae7faace0,Form,8,0,comprehension,NULL,q1,Alex
1548141683,df611255ccede8bdba95d06ae7faace0,Form,8,0,comprehension,NULL,q2,green
1548141683,df611255ccede8bdba95d06ae7faace0,Form,8,0,comprehension,NULL,_REACTION_TIME_,3915
1548141683,df611255ccede8bdba95d06ae7faace0,Form,9,0,outro,NULL,nativeq,yes
1548141683,df611255ccede8bdba95d06ae7faace0,Form,9,0,outro,NULL,_REACTION_TIME_,9693
#
# Results on Tuesday January 22 2019 07:21:51 UTC.
# USER AGENT: Mozilla/5.0 (X11; Linux x86_64) AppleWebKit/537.36 (KHTML, like Gecko) Chrome/68.0.3440.75 Safari/537.36
# Design number was non-random = 86
#
# Columns below this comment are as follows:
# 1. Time results were received.
# 2. MD5 hash of participant's IP address.
# 3. Controller name.
# 4. Item number.
# 5. Element number.
# 6. Type.
# 7. Group.
# 8. Field name.
# 9. Field value.
1548141712,a528afaa66190e0fadb264c55070b7ec,Form,0,0,intro,NULL,_REACTION_TIME_,14446
1548141712,a528afaa66190e0fadb264c55070b7ec,Form,6,1,single-low,1,input,onlyfootstool
1548141712,a528afaa66190e0fadb264c55070b7ec,Form,6,1,single-low,1,_REACTION_TIME_,22454
1548141712,a528afaa66190e0fadb264c55070b7ec,Form,8,0,comprehension,NULL,q1,Sam
1548141712,a528afaa66190e0fadb264c55070b7ec,Form,8,0,comprehension,NULL,q2,green
1548141712,a528afaa66190e0fadb264c55070b7ec,Form,8,0,comprehension,NULL,_REACTION_TIME_,7795
1548141712,a528afaa66190e0fadb264c55070b7ec,Form,9,0,outro,NULL,nativeq,yes
1548141712,a528afaa66190e0fadb264c55070b7ec,Form,9,0,outro,NULL,_REACTION_TIME_,17657
#
# Results on Tuesday January 22 2019 07:22:32 UTC.
# USER AGENT: Mozilla/5.0 (Windows NT 10.0; Win64; x64) AppleWebKit/537.36 (KHTML, like Gecko) Chrome/71.0.3578.98 Safari/537.36
# Design number was non-random = 90
#
# Columns below this comment are as follows:
# 1. Time results were received.
# 2. MD5 hash of participant's IP address.
# 3. Controller name.
# 4. Item number.
# 5. Element number.
# 6. Type.
# 7. Group.
# 8. Field name.
# 9. Field value.
1548141753,74a83cd9136e6c423df3cca29c24309a,Form,0,0,intro,NULL,_REACTION_TIME_,1745
1548141753,74a83cd9136e6c423df3cca29c24309a,Form,6,1,single-low,1,input,onlyfootstool
1548141753,74a83cd9136e6c423df3cca29c24309a,Form,6,1,single-low,1,_REACTION_TIME_,4211
1548141753,74a83cd9136e6c423df3cca29c24309a,Form,8,0,comprehension,NULL,q1,Alex
1548141753,74a83cd9136e6c423df3cca29c24309a,Form,8,0,comprehension,NULL,q2,green
1548141753,74a83cd9136e6c423df3cca29c24309a,Form,8,0,comprehension,NULL,_REACTION_TIME_,4095
1548141753,74a83cd9136e6c423df3cca29c24309a,Form,9,0,outro,NULL,nativeq,yes
1548141753,74a83cd9136e6c423df3cca29c24309a,Form,9,0,outro,NULL,_REACTION_TIME_,13456
#
# Results on Tuesday January 22 2019 07:22:57 UTC.
# USER AGENT: Mozilla/5.0 (Linux; Android 7.1.1; Z557BL) AppleWebKit/537.36 (KHTML, like Gecko) Chrome/71.0.3578.99 Mobile Safari/537.36
# Design number was non-random = 91
#
# Columns below this comment are as follows:
# 1. Time results were received.
# 2. MD5 hash of participant's IP address.
# 3. Controller name.
# 4. Item number.
# 5. Element number.
# 6. Type.
# 7. Group.
# 8. Field name.
# 9. Field value.
1548141777,06c32964c57fab85e798ac056d10bf4f,Form,0,0,intro,NULL,_REACTION_TIME_,1525
1548141777,06c32964c57fab85e798ac056d10bf4f,Form,7,1,both-low,1,input,both
1548141777,06c32964c57fab85e798ac056d10bf4f,Form,7,1,both-low,1,_REACTION_TIME_,2366
1548141777,06c32964c57fab85e798ac056d10bf4f,Form,8,0,comprehension,NULL,q1,Alex
1548141777,06c32964c57fab85e798ac056d10bf4f,Form,8,0,comprehension,NULL,q2,green
1548141777,06c32964c57fab85e798ac056d10bf4f,Form,8,0,comprehension,NULL,_REACTION_TIME_,3240
1548141777,06c32964c57fab85e798ac056d10bf4f,Form,9,0,outro,NULL,nativeq,yes
1548141777,06c32964c57fab85e798ac056d10bf4f,Form,9,0,outro,NULL,_REACTION_TIME_,3909
#
# Results on Tuesday January 22 2019 07:23:03 UTC.
# USER AGENT: Mozilla/5.0 (Windows NT 6.1; WOW64; Trident/7.0; rv:11.0) like Gecko
# Design number was non-random = 91
#
# Columns below this comment are as follows:
# 1. Time results were received.
# 2. MD5 hash of participant's IP address.
# 3. Controller name.
# 4. Item number.
# 5. Element number.
# 6. Type.
# 7. Group.
# 8. Field name.
# 9. Field value.
1548141783,30d0d22adfacb24c13e2eb3dee1b3d68,Form,0,0,intro,NULL,_REACTION_TIME_,1356
1548141783,30d0d22adfacb24c13e2eb3dee1b3d68,Form,7,1,both-low,1,_REACTION_TIME_,2739
1548141783,30d0d22adfacb24c13e2eb3dee1b3d68,Form,8,0,comprehension,NULL,q1,Alex
1548141783,30d0d22adfacb24c13e2eb3dee1b3d68,Form,8,0,comprehension,NULL,_REACTION_TIME_,2507
1548141783,30d0d22adfacb24c13e2eb3dee1b3d68,Form,9,0,outro,NULL,nativeq,yes
1548141783,30d0d22adfacb24c13e2eb3dee1b3d68,Form,9,0,outro,NULL,_REACTION_TIME_,5394
#
# Results on Tuesday January 22 2019 07:23:12 UTC.
# USER AGENT: Mozilla/5.0 (Windows NT 10.0; Win64; x64) AppleWebKit/537.36 (KHTML, like Gecko) Chrome/71.0.3578.98 Safari/537.36
# Design number was non-random = 91
#
# Columns below this comment are as follows:
# 1. Time results were received.
# 2. MD5 hash of participant's IP address.
# 3. Controller name.
# 4. Item number.
# 5. Element number.
# 6. Type.
# 7. Group.
# 8. Field name.
# 9. Field value.
1548141792,74a83cd9136e6c423df3cca29c24309a,Form,0,0,intro,NULL,_REACTION_TIME_,1446
1548141792,74a83cd9136e6c423df3cca29c24309a,Form,7,1,both-low,1,input,both
1548141792,74a83cd9136e6c423df3cca29c24309a,Form,7,1,both-low,1,_REACTION_TIME_,3479
1548141792,74a83cd9136e6c423df3cca29c24309a,Form,8,0,comprehension,NULL,q1,Alex
1548141792,74a83cd9136e6c423df3cca29c24309a,Form,8,0,comprehension,NULL,q2,green
1548141792,74a83cd9136e6c423df3cca29c24309a,Form,8,0,comprehension,NULL,_REACTION_TIME_,3328
1548141792,74a83cd9136e6c423df3cca29c24309a,Form,9,0,outro,NULL,nativeq,yes
1548141792,74a83cd9136e6c423df3cca29c24309a,Form,9,0,outro,NULL,_REACTION_TIME_,11401
#
# Results on Tuesday January 22 2019 07:23:28 UTC.
# USER AGENT: Mozilla/5.0 (Linux; Android 7.1.1; Z557BL) AppleWebKit/537.36 (KHTML, like Gecko) Chrome/71.0.3578.99 Mobile Safari/537.36
# Design number was non-random = 93
#
# Columns below this comment are as follows:
# 1. Time results were received.
# 2. MD5 hash of participant's IP address.
# 3. Controller name.
# 4. Item number.
# 5. Element number.
# 6. Type.
# 7. Group.
# 8. Field name.
# 9. Field value.
1548141808,06c32964c57fab85e798ac056d10bf4f,Form,0,0,intro,NULL,_REACTION_TIME_,1103
1548141808,06c32964c57fab85e798ac056d10bf4f,Form,5,1,both-high,1,input,both
1548141808,06c32964c57fab85e798ac056d10bf4f,Form,5,1,both-high,1,_REACTION_TIME_,2886
1548141808,06c32964c57fab85e798ac056d10bf4f,Form,8,0,comprehension,NULL,q1,Alex
1548141808,06c32964c57fab85e798ac056d10bf4f,Form,8,0,comprehension,NULL,q2,green
1548141808,06c32964c57fab85e798ac056d10bf4f,Form,8,0,comprehension,NULL,_REACTION_TIME_,3369
1548141808,06c32964c57fab85e798ac056d10bf4f,Form,9,0,outro,NULL,nativeq,yes
1548141808,06c32964c57fab85e798ac056d10bf4f,Form,9,0,outro,NULL,_REACTION_TIME_,5918
#
# Results on Tuesday January 22 2019 07:23:38 UTC.
# USER AGENT: Mozilla/5.0 (Windows NT 10.0; Win64; x64) AppleWebKit/537.36 (KHTML, like Gecko) Chrome/71.0.3578.98 Safari/537.36
# Design number was non-random = 91
#
# Columns below this comment are as follows:
# 1. Time results were received.
# 2. MD5 hash of participant's IP address.
# 3. Controller name.
# 4. Item number.
# 5. Element number.
# 6. Type.
# 7. Group.
# 8. Field name.
# 9. Field value.
1548141818,c706bffb799087122700a4a97f2c11d9,Form,0,0,intro,NULL,_REACTION_TIME_,2105
1548141818,c706bffb799087122700a4a97f2c11d9,Form,7,1,both-low,1,input,both
1548141818,c706bffb799087122700a4a97f2c11d9,Form,7,1,both-low,1,_REACTION_TIME_,19501
1548141818,c706bffb799087122700a4a97f2c11d9,Form,8,0,comprehension,NULL,q1,Alex
1548141818,c706bffb799087122700a4a97f2c11d9,Form,8,0,comprehension,NULL,q2,green
1548141818,c706bffb799087122700a4a97f2c11d9,Form,8,0,comprehension,NULL,_REACTION_TIME_,6047
1548141818,c706bffb799087122700a4a97f2c11d9,Form,9,0,outro,NULL,nativeq,yes
1548141818,c706bffb799087122700a4a97f2c11d9,Form,9,0,outro,NULL,_REACTION_TIME_,8122
#
# Results on Tuesday January 22 2019 07:24:11 UTC.
# USER AGENT: Mozilla/5.0 (Macintosh; Intel Mac OS X 10_14_2) AppleWebKit/605.1.15 (KHTML, like Gecko) Version/12.0.2 Safari/605.1.15
# Design number was non-random = 95
#
# Columns below this comment are as follows:
# 1. Time results were received.
# 2. MD5 hash of participant's IP address.
# 3. Controller name.
# 4. Item number.
# 5. Element number.
# 6. Type.
# 7. Group.
# 8. Field name.
# 9. Field value.
1548141852,06a75531eae6e7de1670ff5c4705a6a7,Form,0,0,intro,NULL,_REACTION_TIME_,1884
1548141852,06a75531eae6e7de1670ff5c4705a6a7,Form,7,1,both-low,1,input,both
1548141852,06a75531eae6e7de1670ff5c4705a6a7,Form,7,1,both-low,1,_REACTION_TIME_,12760
1548141852,06a75531eae6e7de1670ff5c4705a6a7,Form,8,0,comprehension,NULL,q1,Alex
1548141852,06a75531eae6e7de1670ff5c4705a6a7,Form,8,0,comprehension,NULL,q2,green
1548141852,06a75531eae6e7de1670ff5c4705a6a7,Form,8,0,comprehension,NULL,_REACTION_TIME_,5286
1548141852,06a75531eae6e7de1670ff5c4705a6a7,Form,9,0,outro,NULL,nativeq,no
1548141852,06a75531eae6e7de1670ff5c4705a6a7,Form,9,0,outro,NULL,_REACTION_TIME_,5543
#
# Results on Tuesday January 22 2019 07:24:15 UTC.
# USER AGENT: Mozilla/5.0 (Windows NT 10.0; Win64; x64) AppleWebKit/537.36 (KHTML, like Gecko) Chrome/71.0.3578.98 Safari/537.36
# Design number was non-random = 96
#
# Columns below this comment are as follows:
# 1. Time results were received.
# 2. MD5 hash of participant's IP address.
# 3. Controller name.
# 4. Item number.
# 5. Element number.
# 6. Type.
# 7. Group.
# 8. Field name.
# 9. Field value.
1548141856,74a83cd9136e6c423df3cca29c24309a,Form,0,0,intro,NULL,_REACTION_TIME_,1567
1548141856,74a83cd9136e6c423df3cca29c24309a,Form,4,1,single-high,1,input,onlychair
1548141856,74a83cd9136e6c423df3cca29c24309a,Form,4,1,single-high,1,_REACTION_TIME_,5146
1548141856,74a83cd9136e6c423df3cca29c24309a,Form,8,0,comprehension,NULL,q1,Alex
1548141856,74a83cd9136e6c423df3cca29c24309a,Form,8,0,comprehension,NULL,q2,green
1548141856,74a83cd9136e6c423df3cca29c24309a,Form,8,0,comprehension,NULL,_REACTION_TIME_,4900
1548141856,74a83cd9136e6c423df3cca29c24309a,Form,9,0,outro,NULL,nativeq,yes
1548141856,74a83cd9136e6c423df3cca29c24309a,Form,9,0,outro,NULL,_REACTION_TIME_,5472
#
# Results on Tuesday January 22 2019 07:24:22 UTC.
# USER AGENT: Mozilla/5.0 (Windows NT 10.0; Win64; x64) AppleWebKit/537.36 (KHTML, like Gecko) Chrome/71.0.3578.98 Safari/537.36
# Design number was non-random = 95
#
# Columns below this comment are as follows:
# 1. Time results were received.
# 2. MD5 hash of participant's IP address.
# 3. Controller name.
# 4. Item number.
# 5. Element number.
# 6. Type.
# 7. Group.
# 8. Field name.
# 9. Field value.
1548141863,d17a1abc117039f0c5270bc694deb713,Form,0,0,intro,NULL,_REACTION_TIME_,24039
1548141863,d17a1abc117039f0c5270bc694deb713,Form,7,1,both-low,1,input,chair
1548141863,d17a1abc117039f0c5270bc694deb713,Form,7,1,both-low,1,_REACTION_TIME_,10307
1548141863,d17a1abc117039f0c5270bc694deb713,Form,8,0,comprehension,NULL,q1,Sam
1548141863,d17a1abc117039f0c5270bc694deb713,Form,8,0,comprehension,NULL,q2,green
1548141863,d17a1abc117039f0c5270bc694deb713,Form,8,0,comprehension,NULL,_REACTION_TIME_,7161
1548141863,d17a1abc117039f0c5270bc694deb713,Form,9,0,outro,NULL,nativeq,yes
1548141863,d17a1abc117039f0c5270bc694deb713,Form,9,0,outro,NULL,_REACTION_TIME_,4501
#
# Results on Tuesday January 22 2019 07:24:27 UTC.
# USER AGENT: Mozilla/5.0 (Linux; Android 7.1.1; Z557BL) AppleWebKit/537.36 (KHTML, like Gecko) Chrome/71.0.3578.99 Mobile Safari/537.36
# Design number was non-random = 96
#
# Columns below this comment are as follows:
# 1. Time results were received.
# 2. MD5 hash of participant's IP address.
# 3. Controller name.
# 4. Item number.
# 5. Element number.
# 6. Type.
# 7. Group.
# 8. Field name.
# 9. Field value.
1548141867,06c32964c57fab85e798ac056d10bf4f,Form,0,0,intro,NULL,_REACTION_TIME_,1068
1548141867,06c32964c57fab85e798ac056d10bf4f,Form,4,1,single-high,1,input,chair
1548141867,06c32964c57fab85e798ac056d10bf4f,Form,4,1,single-high,1,_REACTION_TIME_,2717
1548141867,06c32964c57fab85e798ac056d10bf4f,Form,8,0,comprehension,NULL,q1,Alex
1548141867,06c32964c57fab85e798ac056d10bf4f,Form,8,0,comprehension,NULL,q2,green
1548141867,06c32964c57fab85e798ac056d10bf4f,Form,8,0,comprehension,NULL,_REACTION_TIME_,3511
1548141867,06c32964c57fab85e798ac056d10bf4f,Form,9,0,outro,NULL,nativeq,yes
1548141867,06c32964c57fab85e798ac056d10bf4f,Form,9,0,outro,NULL,_REACTION_TIME_,5586
#
# Results on Tuesday January 22 2019 07:24:53 UTC.
# USER AGENT: Mozilla/5.0 (Windows NT 6.1; WOW64; Trident/7.0; rv:11.0) like Gecko
# Design number was non-random = 100
#
# Columns below this comment are as follows:
# 1. Time results were received.
# 2. MD5 hash of participant's IP address.
# 3. Controller name.
# 4. Item number.
# 5. Element number.
# 6. Type.
# 7. Group.
# 8. Field name.
# 9. Field value.
1548141894,30d0d22adfacb24c13e2eb3dee1b3d68,Form,0,0,intro,NULL,_REACTION_TIME_,2201
1548141894,30d0d22adfacb24c13e2eb3dee1b3d68,Form,4,1,single-high,1,_REACTION_TIME_,1171
1548141894,30d0d22adfacb24c13e2eb3dee1b3d68,Form,8,0,comprehension,NULL,q1,Alex
1548141894,30d0d22adfacb24c13e2eb3dee1b3d68,Form,8,0,comprehension,NULL,_REACTION_TIME_,3331
1548141894,30d0d22adfacb24c13e2eb3dee1b3d68,Form,9,0,outro,NULL,nativeq,yes
1548141894,30d0d22adfacb24c13e2eb3dee1b3d68,Form,9,0,outro,NULL,_REACTION_TIME_,4483
#
# Results on Tuesday January 22 2019 07:25:01 UTC.
# USER AGENT: Mozilla/5.0 (Macintosh; Intel Mac OS X 10_14_2) AppleWebKit/605.1.15 (KHTML, like Gecko) Version/12.0.2 Safari/605.1.15
# Design number was non-random = 100
#
# Columns below this comment are as follows:
# 1. Time results were received.
# 2. MD5 hash of participant's IP address.
# 3. Controller name.
# 4. Item number.
# 5. Element number.
# 6. Type.
# 7. Group.
# 8. Field name.
# 9. Field value.
1548141902,06a75531eae6e7de1670ff5c4705a6a7,Form,0,0,intro,NULL,_REACTION_TIME_,1893
1548141902,06a75531eae6e7de1670ff5c4705a6a7,Form,4,1,single-high,1,input,onlychair
1548141902,06a75531eae6e7de1670ff5c4705a6a7,Form,4,1,single-high,1,_REACTION_TIME_,9290
1548141902,06a75531eae6e7de1670ff5c4705a6a7,Form,8,0,comprehension,NULL,q1,Alex
1548141902,06a75531eae6e7de1670ff5c4705a6a7,Form,8,0,comprehension,NULL,q2,green
1548141902,06a75531eae6e7de1670ff5c4705a6a7,Form,8,0,comprehension,NULL,_REACTION_TIME_,4454
1548141902,06a75531eae6e7de1670ff5c4705a6a7,Form,9,0,outro,NULL,nativeq,yes
1548141902,06a75531eae6e7de1670ff5c4705a6a7,Form,9,0,outro,NULL,_REACTION_TIME_,4684
#
# Results on Tuesday January 22 2019 07:25:08 UTC.
# USER AGENT: Mozilla/5.0 (Windows NT 10.0; Win64; x64) AppleWebKit/537.36 (KHTML, like Gecko) Chrome/71.0.3578.98 Safari/537.36
# Design number was non-random = 100
#
# Columns below this comment are as follows:
# 1. Time results were received.
# 2. MD5 hash of participant's IP address.
# 3. Controller name.
# 4. Item number.
# 5. Element number.
# 6. Type.
# 7. Group.
# 8. Field name.
# 9. Field value.
1548141909,d17a1abc117039f0c5270bc694deb713,Form,0,0,intro,NULL,_REACTION_TIME_,7925
1548141909,d17a1abc117039f0c5270bc694deb713,Form,4,1,single-high,1,input,footstool
1548141909,d17a1abc117039f0c5270bc694deb713,Form,4,1,single-high,1,_REACTION_TIME_,7491
1548141909,d17a1abc117039f0c5270bc694deb713,Form,8,0,comprehension,NULL,q1,Alex
1548141909,d17a1abc117039f0c5270bc694deb713,Form,8,0,comprehension,NULL,q2,green
1548141909,d17a1abc117039f0c5270bc694deb713,Form,8,0,comprehension,NULL,_REACTION_TIME_,5434
1548141909,d17a1abc117039f0c5270bc694deb713,Form,9,0,outro,NULL,nativeq,yes
1548141909,d17a1abc117039f0c5270bc694deb713,Form,9,0,outro,NULL,_REACTION_TIME_,6055
#
# Results on Tuesday January 22 2019 07:25:36 UTC.
# USER AGENT: Mozilla/5.0 (Windows NT 10.0; Win64; x64) AppleWebKit/537.36 (KHTML, like Gecko) Chrome/71.0.3578.98 Safari/537.36
# Design number was non-random = 103
#
# Columns below this comment are as follows:
# 1. Time results were received.
# 2. MD5 hash of participant's IP address.
# 3. Controller name.
# 4. Item number.
# 5. Element number.
# 6. Type.
# 7. Group.
# 8. Field name.
# 9. Field value.
1548141937,74a83cd9136e6c423df3cca29c24309a,Form,0,0,intro,NULL,_REACTION_TIME_,1581
1548141937,74a83cd9136e6c423df3cca29c24309a,Form,7,1,both-low,1,input,both
1548141937,74a83cd9136e6c423df3cca29c24309a,Form,7,1,both-low,1,_REACTION_TIME_,3544
1548141937,74a83cd9136e6c423df3cca29c24309a,Form,8,0,comprehension,NULL,q1,Alex
1548141937,74a83cd9136e6c423df3cca29c24309a,Form,8,0,comprehension,NULL,q2,green
1548141937,74a83cd9136e6c423df3cca29c24309a,Form,8,0,comprehension,NULL,_REACTION_TIME_,3676
1548141937,74a83cd9136e6c423df3cca29c24309a,Form,9,0,outro,NULL,nativeq,yes
1548141937,74a83cd9136e6c423df3cca29c24309a,Form,9,0,outro,NULL,_REACTION_TIME_,10335
#
# Results on Tuesday January 22 2019 07:25:39 UTC.
# USER AGENT: Mozilla/5.0 (Macintosh; Intel Mac OS X 10_14_2) AppleWebKit/605.1.15 (KHTML, like Gecko) Version/12.0.2 Safari/605.1.15
# Design number was non-random = 103
#
# Columns below this comment are as follows:
# 1. Time results were received.
# 2. MD5 hash of participant's IP address.
# 3. Controller name.
# 4. Item number.
# 5. Element number.
# 6. Type.
# 7. Group.
# 8. Field name.
# 9. Field value.
1548141940,06a75531eae6e7de1670ff5c4705a6a7,Form,0,0,intro,NULL,_REACTION_TIME_,1438
1548141940,06a75531eae6e7de1670ff5c4705a6a7,Form,7,1,both-low,1,input,both
1548141940,06a75531eae6e7de1670ff5c4705a6a7,Form,7,1,both-low,1,_REACTION_TIME_,4861
1548141940,06a75531eae6e7de1670ff5c4705a6a7,Form,8,0,comprehension,NULL,q1,Alex
1548141940,06a75531eae6e7de1670ff5c4705a6a7,Form,8,0,comprehension,NULL,q2,green
1548141940,06a75531eae6e7de1670ff5c4705a6a7,Form,8,0,comprehension,NULL,_REACTION_TIME_,4091
1548141940,06a75531eae6e7de1670ff5c4705a6a7,Form,9,0,outro,NULL,nativeq,yes
1548141940,06a75531eae6e7de1670ff5c4705a6a7,Form,9,0,outro,NULL,_REACTION_TIME_,7191
#
# Results on Tuesday January 22 2019 07:26:32 UTC.
# USER AGENT: Mozilla/5.0 (Linux; Android 7.1.1; Z557BL) AppleWebKit/537.36 (KHTML, like Gecko) Chrome/71.0.3578.99 Mobile Safari/537.36
# Design number was non-random = 105
#
# Columns below this comment are as follows:
# 1. Time results were received.
# 2. MD5 hash of participant's IP address.
# 3. Controller name.
# 4. Item number.
# 5. Element number.
# 6. Type.
# 7. Group.
# 8. Field name.
# 9. Field value.
1548141992,06c32964c57fab85e798ac056d10bf4f,Form,0,0,intro,NULL,_REACTION_TIME_,1104
1548141992,06c32964c57fab85e798ac056d10bf4f,Form,5,1,both-high,1,input,both
1548141992,06c32964c57fab85e798ac056d10bf4f,Form,5,1,both-high,1,_REACTION_TIME_,3188
1548141992,06c32964c57fab85e798ac056d10bf4f,Form,8,0,comprehension,NULL,q1,Alex
1548141992,06c32964c57fab85e798ac056d10bf4f,Form,8,0,comprehension,NULL,q2,green
1548141992,06c32964c57fab85e798ac056d10bf4f,Form,8,0,comprehension,NULL,_REACTION_TIME_,3360
1548141992,06c32964c57fab85e798ac056d10bf4f,Form,9,0,outro,NULL,nativeq,yes
1548141992,06c32964c57fab85e798ac056d10bf4f,Form,9,0,outro,NULL,_REACTION_TIME_,3847
#
# Results on Tuesday January 22 2019 07:26:41 UTC.
# USER AGENT: Mozilla/5.0 (Windows NT 6.1; WOW64; Trident/7.0; rv:11.0) like Gecko
# Design number was non-random = 105
#
# Columns below this comment are as follows:
# 1. Time results were received.
# 2. MD5 hash of participant's IP address.
# 3. Controller name.
# 4. Item number.
# 5. Element number.
# 6. Type.
# 7. Group.
# 8. Field name.
# 9. Field value.
1548142002,30d0d22adfacb24c13e2eb3dee1b3d68,Form,0,0,intro,NULL,_REACTION_TIME_,1442
1548142002,30d0d22adfacb24c13e2eb3dee1b3d68,Form,5,1,both-high,1,_REACTION_TIME_,2075
1548142002,30d0d22adfacb24c13e2eb3dee1b3d68,Form,8,0,comprehension,NULL,q1,Alex
1548142002,30d0d22adfacb24c13e2eb3dee1b3d68,Form,8,0,comprehension,NULL,_REACTION_TIME_,2291
1548142002,30d0d22adfacb24c13e2eb3dee1b3d68,Form,9,0,outro,NULL,nativeq,yes
1548142002,30d0d22adfacb24c13e2eb3dee1b3d68,Form,9,0,outro,NULL,_REACTION_TIME_,5674
#
# Results on Tuesday January 22 2019 07:26:48 UTC.
# USER AGENT: Mozilla/5.0 (Windows NT 10.0; Win64; x64) AppleWebKit/537.36 (KHTML, like Gecko) Chrome/71.0.3578.98 Safari/537.36
# Design number was non-random = 105
#
# Columns below this comment are as follows:
# 1. Time results were received.
# 2. MD5 hash of participant's IP address.
# 3. Controller name.
# 4. Item number.
# 5. Element number.
# 6. Type.
# 7. Group.
# 8. Field name.
# 9. Field value.
1548142009,74a83cd9136e6c423df3cca29c24309a,Form,0,0,intro,NULL,_REACTION_TIME_,1753
1548142009,74a83cd9136e6c423df3cca29c24309a,Form,5,1,both-high,1,input,both
1548142009,74a83cd9136e6c423df3cca29c24309a,Form,5,1,both-high,1,_REACTION_TIME_,4066
1548142009,74a83cd9136e6c423df3cca29c24309a,Form,8,0,comprehension,NULL,q1,Alex
1548142009,74a83cd9136e6c423df3cca29c24309a,Form,8,0,comprehension,NULL,q2,green
1548142009,74a83cd9136e6c423df3cca29c24309a,Form,8,0,comprehension,NULL,_REACTION_TIME_,4250
1548142009,74a83cd9136e6c423df3cca29c24309a,Form,9,0,outro,NULL,nativeq,yes
1548142009,74a83cd9136e6c423df3cca29c24309a,Form,9,0,outro,NULL,_REACTION_TIME_,11072
#
# Results on Tuesday January 22 2019 07:26:57 UTC.
# USER AGENT: Mozilla/5.0 (Linux; Android 8.0.0; SM-J737V) AppleWebKit/537.36 (KHTML, like Gecko) Chrome/71.0.3578.99 Mobile Safari/537.36
# Design number was non-random = 105
#
# Columns below this comment are as follows:
# 1. Time results were received.
# 2. MD5 hash of participant's IP address.
# 3. Controller name.
# 4. Item number.
# 5. Element number.
# 6. Type.
# 7. Group.
# 8. Field name.
# 9. Field value.
1548142017,80316bfc6a585b42c42dc2471873d137,Form,0,0,intro,NULL,_REACTION_TIME_,2569
1548142017,80316bfc6a585b42c42dc2471873d137,Form,5,1,both-high,1,input,onlyfootstool
1548142017,80316bfc6a585b42c42dc2471873d137,Form,5,1,both-high,1,_REACTION_TIME_,17315
1548142017,80316bfc6a585b42c42dc2471873d137,Form,8,0,comprehension,NULL,q1,Alex
1548142017,80316bfc6a585b42c42dc2471873d137,Form,8,0,comprehension,NULL,q2,green
1548142017,80316bfc6a585b42c42dc2471873d137,Form,8,0,comprehension,NULL,_REACTION_TIME_,7224
1548142017,80316bfc6a585b42c42dc2471873d137,Form,9,0,outro,NULL,nativeq,yes
1548142017,80316bfc6a585b42c42dc2471873d137,Form,9,0,outro,NULL,_REACTION_TIME_,10186
#
# Results on Tuesday January 22 2019 07:27:11 UTC.
# USER AGENT: Mozilla/5.0 (Windows NT 6.1; WOW64; Trident/7.0; rv:11.0) like Gecko
# Design number was non-random = 108
#
# Columns below this comment are as follows:
# 1. Time results were received.
# 2. MD5 hash of participant's IP address.
# 3. Controller name.
# 4. Item number.
# 5. Element number.
# 6. Type.
# 7. Group.
# 8. Field name.
# 9. Field value.
1548142032,30d0d22adfacb24c13e2eb3dee1b3d68,Form,0,0,intro,NULL,_REACTION_TIME_,1813
1548142032,30d0d22adfacb24c13e2eb3dee1b3d68,Form,4,1,single-high,1,_REACTION_TIME_,1674
1548142032,30d0d22adfacb24c13e2eb3dee1b3d68,Form,8,0,comprehension,NULL,q1,Alex
1548142032,30d0d22adfacb24c13e2eb3dee1b3d68,Form,8,0,comprehension,NULL,_REACTION_TIME_,2306
1548142032,30d0d22adfacb24c13e2eb3dee1b3d68,Form,9,0,outro,NULL,nativeq,yes
1548142032,30d0d22adfacb24c13e2eb3dee1b3d68,Form,9,0,outro,NULL,_REACTION_TIME_,4211
#
# Results on Tuesday January 22 2019 07:27:41 UTC.
# USER AGENT: Mozilla/5.0 (Linux; Android 7.1.1; Z557BL) AppleWebKit/537.36 (KHTML, like Gecko) Chrome/71.0.3578.99 Mobile Safari/537.36
# Design number was non-random = 110
#
# Columns below this comment are as follows:
# 1. Time results were received.
# 2. MD5 hash of participant's IP address.
# 3. Controller name.
# 4. Item number.
# 5. Element number.
# 6. Type.
# 7. Group.
# 8. Field name.
# 9. Field value.
1548142061,06c32964c57fab85e798ac056d10bf4f,Form,0,0,intro,NULL,_REACTION_TIME_,1917
1548142061,06c32964c57fab85e798ac056d10bf4f,Form,6,1,single-low,1,input,footstool
1548142061,06c32964c57fab85e798ac056d10bf4f,Form,6,1,single-low,1,_REACTION_TIME_,4991
1548142061,06c32964c57fab85e798ac056d10bf4f,Form,8,0,comprehension,NULL,q1,Alex
1548142061,06c32964c57fab85e798ac056d10bf4f,Form,8,0,comprehension,NULL,q2,green
1548142061,06c32964c57fab85e798ac056d10bf4f,Form,8,0,comprehension,NULL,_REACTION_TIME_,4036
1548142061,06c32964c57fab85e798ac056d10bf4f,Form,9,0,outro,NULL,nativeq,yes
1548142061,06c32964c57fab85e798ac056d10bf4f,Form,9,0,outro,NULL,_REACTION_TIME_,6631
#
# Results on Tuesday January 22 2019 07:28:00 UTC.
# USER AGENT: Mozilla/5.0 (Windows NT 10.0; Win64; x64) AppleWebKit/537.36 (KHTML, like Gecko) Chrome/71.0.3578.98 Safari/537.36
# Design number was non-random = 110
#
# Columns below this comment are as follows:
# 1. Time results were received.
# 2. MD5 hash of participant's IP address.
# 3. Controller name.
# 4. Item number.
# 5. Element number.
# 6. Type.
# 7. Group.
# 8. Field name.
# 9. Field value.
1548142080,74a83cd9136e6c423df3cca29c24309a,Form,0,0,intro,NULL,_REACTION_TIME_,1512
1548142080,74a83cd9136e6c423df3cca29c24309a,Form,6,1,single-low,1,input,onlyfootstool
1548142080,74a83cd9136e6c423df3cca29c24309a,Form,6,1,single-low,1,_REACTION_TIME_,4210
1548142080,74a83cd9136e6c423df3cca29c24309a,Form,8,0,comprehension,NULL,q1,Alex
1548142080,74a83cd9136e6c423df3cca29c24309a,Form,8,0,comprehension,NULL,q2,green
1548142080,74a83cd9136e6c423df3cca29c24309a,Form,8,0,comprehension,NULL,_REACTION_TIME_,4140
1548142080,74a83cd9136e6c423df3cca29c24309a,Form,9,0,outro,NULL,nativeq,yes
1548142080,74a83cd9136e6c423df3cca29c24309a,Form,9,0,outro,NULL,_REACTION_TIME_,12504
#
# Results on Tuesday January 22 2019 07:28:18 UTC.
# USER AGENT: Mozilla/5.0 (Windows NT 6.1; Win64; x64; rv:64.0) Gecko/20100101 Firefox/64.0
# Design number was non-random = 110
#
# Columns below this comment are as follows:
# 1. Time results were received.
# 2. MD5 hash of participant's IP address.
# 3. Controller name.
# 4. Item number.
# 5. Element number.
# 6. Type.
# 7. Group.
# 8. Field name.
# 9. Field value.
1548142098,6703d72126273f1da2963dfc783b5d73,Form,0,0,intro,NULL,_REACTION_TIME_,6449
1548142098,6703d72126273f1da2963dfc783b5d73,Form,6,1,single-low,1,input,onlyfootstool
1548142098,6703d72126273f1da2963dfc783b5d73,Form,6,1,single-low,1,_REACTION_TIME_,10942
1548142098,6703d72126273f1da2963dfc783b5d73,Form,8,0,comprehension,NULL,q1,Alex
1548142098,6703d72126273f1da2963dfc783b5d73,Form,8,0,comprehension,NULL,q2,tan
1548142098,6703d72126273f1da2963dfc783b5d73,Form,8,0,comprehension,NULL,_REACTION_TIME_,11473
1548142098,6703d72126273f1da2963dfc783b5d73,Form,9,0,outro,NULL,nativeq,yes
1548142098,6703d72126273f1da2963dfc783b5d73,Form,9,0,outro,NULL,_REACTION_TIME_,4832
#
# Results on Tuesday January 22 2019 07:28:25 UTC.
# USER AGENT: Mozilla/5.0 (Windows NT 6.1; WOW64; Trident/7.0; rv:11.0) like Gecko
# Design number was non-random = 112
#
# Columns below this comment are as follows:
# 1. Time results were received.
# 2. MD5 hash of participant's IP address.
# 3. Controller name.
# 4. Item number.
# 5. Element number.
# 6. Type.
# 7. Group.
# 8. Field name.
# 9. Field value.
1548142106,30d0d22adfacb24c13e2eb3dee1b3d68,Form,0,0,intro,NULL,_REACTION_TIME_,3939
1548142106,30d0d22adfacb24c13e2eb3dee1b3d68,Form,4,1,single-high,1,_REACTION_TIME_,1892
1548142106,30d0d22adfacb24c13e2eb3dee1b3d68,Form,8,0,comprehension,NULL,q1,Alex
1548142106,30d0d22adfacb24c13e2eb3dee1b3d68,Form,8,0,comprehension,NULL,_REACTION_TIME_,1834
1548142106,30d0d22adfacb24c13e2eb3dee1b3d68,Form,9,0,outro,NULL,nativeq,yes
1548142106,30d0d22adfacb24c13e2eb3dee1b3d68,Form,9,0,outro,NULL,_REACTION_TIME_,4545
#
# Results on Tuesday January 22 2019 07:28:43 UTC.
# USER AGENT: Mozilla/5.0 (Linux; Android 7.1.1; Z557BL) AppleWebKit/537.36 (KHTML, like Gecko) Chrome/71.0.3578.99 Mobile Safari/537.36
# Design number was non-random = 113
#
# Columns below this comment are as follows:
# 1. Time results were received.
# 2. MD5 hash of participant's IP address.
# 3. Controller name.
# 4. Item number.
# 5. Element number.
# 6. Type.
# 7. Group.
# 8. Field name.
# 9. Field value.
1548142123,06c32964c57fab85e798ac056d10bf4f,Form,0,0,intro,NULL,_REACTION_TIME_,1107
1548142123,06c32964c57fab85e798ac056d10bf4f,Form,5,1,both-high,1,input,both
1548142123,06c32964c57fab85e798ac056d10bf4f,Form,5,1,both-high,1,_REACTION_TIME_,3065
1548142123,06c32964c57fab85e798ac056d10bf4f,Form,8,0,comprehension,NULL,q1,Alex
1548142123,06c32964c57fab85e798ac056d10bf4f,Form,8,0,comprehension,NULL,q2,green
1548142123,06c32964c57fab85e798ac056d10bf4f,Form,8,0,comprehension,NULL,_REACTION_TIME_,5305
1548142123,06c32964c57fab85e798ac056d10bf4f,Form,9,0,outro,NULL,nativeq,yes
1548142123,06c32964c57fab85e798ac056d10bf4f,Form,9,0,outro,NULL,_REACTION_TIME_,6963
#
# Results on Tuesday January 22 2019 07:28:45 UTC.
# USER AGENT: Mozilla/5.0 (Windows NT 10.0; Win64; x64) AppleWebKit/537.36 (KHTML, like Gecko) Chrome/71.0.3578.98 Safari/537.36
# Design number was non-random = 112
#
# Columns below this comment are as follows:
# 1. Time results were received.
# 2. MD5 hash of participant's IP address.
# 3. Controller name.
# 4. Item number.
# 5. Element number.
# 6. Type.
# 7. Group.
# 8. Field name.
# 9. Field value.
1548142126,74a83cd9136e6c423df3cca29c24309a,Form,0,0,intro,NULL,_REACTION_TIME_,4257
1548142126,74a83cd9136e6c423df3cca29c24309a,Form,4,1,single-high,1,input,onlychair
1548142126,74a83cd9136e6c423df3cca29c24309a,Form,4,1,single-high,1,_REACTION_TIME_,6200
1548142126,74a83cd9136e6c423df3cca29c24309a,Form,8,0,comprehension,NULL,q1,Alex
1548142126,74a83cd9136e6c423df3cca29c24309a,Form,8,0,comprehension,NULL,q2,green
1548142126,74a83cd9136e6c423df3cca29c24309a,Form,8,0,comprehension,NULL,_REACTION_TIME_,3555
1548142126,74a83cd9136e6c423df3cca29c24309a,Form,9,0,outro,NULL,nativeq,yes
1548142126,74a83cd9136e6c423df3cca29c24309a,Form,9,0,outro,NULL,_REACTION_TIME_,11034
#
# Results on Tuesday January 22 2019 07:29:14 UTC.
# USER AGENT: Mozilla/5.0 (Macintosh; Intel Mac OS X 10_14_2) AppleWebKit/605.1.15 (KHTML, like Gecko) Version/12.0.2 Safari/605.1.15
# Design number was non-random = 116
#
# Columns below this comment are as follows:
# 1. Time results were received.
# 2. MD5 hash of participant's IP address.
# 3. Controller name.
# 4. Item number.
# 5. Element number.
# 6. Type.
# 7. Group.
# 8. Field name.
# 9. Field value.
1548142155,06a75531eae6e7de1670ff5c4705a6a7,Form,0,0,intro,NULL,_REACTION_TIME_,1582
1548142155,06a75531eae6e7de1670ff5c4705a6a7,Form,4,1,single-high,1,input,onlychair
1548142155,06a75531eae6e7de1670ff5c4705a6a7,Form,4,1,single-high,1,_REACTION_TIME_,7203
1548142155,06a75531eae6e7de1670ff5c4705a6a7,Form,8,0,comprehension,NULL,q1,Alex
1548142155,06a75531eae6e7de1670ff5c4705a6a7,Form,8,0,comprehension,NULL,q2,green
1548142155,06a75531eae6e7de1670ff5c4705a6a7,Form,8,0,comprehension,NULL,_REACTION_TIME_,5393
1548142155,06a75531eae6e7de1670ff5c4705a6a7,Form,9,0,outro,NULL,nativeq,yes
1548142155,06a75531eae6e7de1670ff5c4705a6a7,Form,9,0,outro,NULL,_REACTION_TIME_,4935
#
# Results on Tuesday January 22 2019 07:29:16 UTC.
# USER AGENT: Mozilla/5.0 (Windows NT 10.0; WOW64) AppleWebKit/537.36 (KHTML, like Gecko) Chrome/70.0.3538.110 Safari/537.36 AVG/70.1.682.112
# Design number was non-random = 112
#
# Columns below this comment are as follows:
# 1. Time results were received.
# 2. MD5 hash of participant's IP address.
# 3. Controller name.
# 4. Item number.
# 5. Element number.
# 6. Type.
# 7. Group.
# 8. Field name.
# 9. Field value.
1548142156,879485b28206af6c0cbfd52b5092604f,Form,0,0,intro,NULL,_REACTION_TIME_,1850
1548142156,879485b28206af6c0cbfd52b5092604f,Form,4,1,single-high,1,input,chair
1548142156,879485b28206af6c0cbfd52b5092604f,Form,4,1,single-high,1,_REACTION_TIME_,22578
1548142156,879485b28206af6c0cbfd52b5092604f,Form,8,0,comprehension,NULL,q1,Alex
1548142156,879485b28206af6c0cbfd52b5092604f,Form,8,0,comprehension,NULL,q2,green
1548142156,879485b28206af6c0cbfd52b5092604f,Form,8,0,comprehension,NULL,_REACTION_TIME_,7729
1548142156,879485b28206af6c0cbfd52b5092604f,Form,9,0,outro,NULL,nativeq,yes
1548142156,879485b28206af6c0cbfd52b5092604f,Form,9,0,outro,NULL,_REACTION_TIME_,13946
#
# Results on Tuesday January 22 2019 07:30:01 UTC.
# USER AGENT: Mozilla/5.0 (Linux; Android 7.1.1; Z557BL) AppleWebKit/537.36 (KHTML, like Gecko) Chrome/71.0.3578.99 Mobile Safari/537.36
# Design number was non-random = 118
#
# Columns below this comment are as follows:
# 1. Time results were received.
# 2. MD5 hash of participant's IP address.
# 3. Controller name.
# 4. Item number.
# 5. Element number.
# 6. Type.
# 7. Group.
# 8. Field name.
# 9. Field value.
1548142202,06c32964c57fab85e798ac056d10bf4f,Form,0,0,intro,NULL,_REACTION_TIME_,1226
1548142202,06c32964c57fab85e798ac056d10bf4f,Form,6,1,single-low,1,input,footstool
1548142202,06c32964c57fab85e798ac056d10bf4f,Form,6,1,single-low,1,_REACTION_TIME_,2489
1548142202,06c32964c57fab85e798ac056d10bf4f,Form,8,0,comprehension,NULL,q1,Alex
1548142202,06c32964c57fab85e798ac056d10bf4f,Form,8,0,comprehension,NULL,q2,green
1548142202,06c32964c57fab85e798ac056d10bf4f,Form,8,0,comprehension,NULL,_REACTION_TIME_,5185
1548142202,06c32964c57fab85e798ac056d10bf4f,Form,9,0,outro,NULL,nativeq,yes
1548142202,06c32964c57fab85e798ac056d10bf4f,Form,9,0,outro,NULL,_REACTION_TIME_,4715
#
# Results on Tuesday January 22 2019 07:30:30 UTC.
# USER AGENT: Mozilla/5.0 (Linux; Android 7.1.1; Z557BL) AppleWebKit/537.36 (KHTML, like Gecko) Chrome/71.0.3578.99 Mobile Safari/537.36
# Design number was non-random = 119
#
# Columns below this comment are as follows:
# 1. Time results were received.
# 2. MD5 hash of participant's IP address.
# 3. Controller name.
# 4. Item number.
# 5. Element number.
# 6. Type.
# 7. Group.
# 8. Field name.
# 9. Field value.
1548142231,06c32964c57fab85e798ac056d10bf4f,Form,0,0,intro,NULL,_REACTION_TIME_,1310
1548142231,06c32964c57fab85e798ac056d10bf4f,Form,7,1,both-low,1,input,both
1548142231,06c32964c57fab85e798ac056d10bf4f,Form,7,1,both-low,1,_REACTION_TIME_,2793
1548142231,06c32964c57fab85e798ac056d10bf4f,Form,8,0,comprehension,NULL,q1,Alex
1548142231,06c32964c57fab85e798ac056d10bf4f,Form,8,0,comprehension,NULL,q2,green
1548142231,06c32964c57fab85e798ac056d10bf4f,Form,8,0,comprehension,NULL,_REACTION_TIME_,4792
1548142231,06c32964c57fab85e798ac056d10bf4f,Form,9,0,outro,NULL,nativeq,yes
1548142231,06c32964c57fab85e798ac056d10bf4f,Form,9,0,outro,NULL,_REACTION_TIME_,3890
#
# Results on Tuesday January 22 2019 07:30:48 UTC.
# USER AGENT: Mozilla/5.0 (Windows NT 6.1; WOW64; Trident/7.0; rv:11.0) like Gecko
# Design number was non-random = 120
#
# Columns below this comment are as follows:
# 1. Time results were received.
# 2. MD5 hash of participant's IP address.
# 3. Controller name.
# 4. Item number.
# 5. Element number.
# 6. Type.
# 7. Group.
# 8. Field name.
# 9. Field value.
1548142248,30d0d22adfacb24c13e2eb3dee1b3d68,Form,0,0,intro,NULL,_REACTION_TIME_,1489
1548142248,30d0d22adfacb24c13e2eb3dee1b3d68,Form,4,1,single-high,1,_REACTION_TIME_,1852
1548142248,30d0d22adfacb24c13e2eb3dee1b3d68,Form,8,0,comprehension,NULL,q1,Alex
1548142248,30d0d22adfacb24c13e2eb3dee1b3d68,Form,8,0,comprehension,NULL,_REACTION_TIME_,1961
1548142248,30d0d22adfacb24c13e2eb3dee1b3d68,Form,9,0,outro,NULL,nativeq,yes
1548142248,30d0d22adfacb24c13e2eb3dee1b3d68,Form,9,0,outro,NULL,_REACTION_TIME_,4755
#
# Results on Tuesday January 22 2019 07:30:52 UTC.
# USER AGENT: Mozilla/5.0 (Windows NT 10.0; Win64; x64) AppleWebKit/537.36 (KHTML, like Gecko) Chrome/71.0.3578.98 Safari/537.36
# Design number was non-random = 119
#
# Columns below this comment are as follows:
# 1. Time results were received.
# 2. MD5 hash of participant's IP address.
# 3. Controller name.
# 4. Item number.
# 5. Element number.
# 6. Type.
# 7. Group.
# 8. Field name.
# 9. Field value.
1548142252,74a83cd9136e6c423df3cca29c24309a,Form,0,0,intro,NULL,_REACTION_TIME_,1882
1548142252,74a83cd9136e6c423df3cca29c24309a,Form,7,1,both-low,1,input,both
1548142252,74a83cd9136e6c423df3cca29c24309a,Form,7,1,both-low,1,_REACTION_TIME_,4620
1548142252,74a83cd9136e6c423df3cca29c24309a,Form,8,0,comprehension,NULL,q1,Alex
1548142252,74a83cd9136e6c423df3cca29c24309a,Form,8,0,comprehension,NULL,q2,green
1548142252,74a83cd9136e6c423df3cca29c24309a,Form,8,0,comprehension,NULL,_REACTION_TIME_,3926
1548142252,74a83cd9136e6c423df3cca29c24309a,Form,9,0,outro,NULL,nativeq,yes
1548142252,74a83cd9136e6c423df3cca29c24309a,Form,9,0,outro,NULL,_REACTION_TIME_,25251
#
# Results on Tuesday January 22 2019 07:31:12 UTC.
# USER AGENT: Mozilla/5.0 (Windows NT 6.1; WOW64; Trident/7.0; rv:11.0) like Gecko
# Design number was non-random = 122
#
# Columns below this comment are as follows:
# 1. Time results were received.
# 2. MD5 hash of participant's IP address.
# 3. Controller name.
# 4. Item number.
# 5. Element number.
# 6. Type.
# 7. Group.
# 8. Field name.
# 9. Field value.
1548142273,30d0d22adfacb24c13e2eb3dee1b3d68,Form,0,0,intro,NULL,_REACTION_TIME_,1776
1548142273,30d0d22adfacb24c13e2eb3dee1b3d68,Form,6,1,single-low,1,_REACTION_TIME_,1524
