#
# Results on Monday January 21 2019 16:46:19 UTC.
# USER AGENT: Mozilla/5.0 (Windows NT 6.3; Win64; x64) AppleWebKit/537.36 (KHTML, like Gecko) Chrome/71.0.3578.98 Safari/537.36
# Design number was non-random = 94
#
# Columns below this comment are as follows:
# 1. Time results were received.
# 2. MD5 hash of participant's IP address.
# 3. Controller name.
# 4. Item number.
# 5. Element number.
# 6. Type.
# 7. Group.
# 8. Field name.
# 9. Field value.
1548089179,908ecce9e305fe45974bd6dfb3fb0e48,Form,0,0,intro,NULL,_REACTION_TIME_,2205
1548089179,908ecce9e305fe45974bd6dfb3fb0e48,Form,11,3,exhaust_low_modal,1,input,no
1548089179,908ecce9e305fe45974bd6dfb3fb0e48,Form,11,3,exhaust_low_modal,1,input,yes
1548089179,908ecce9e305fe45974bd6dfb3fb0e48,Form,11,3,exhaust_low_modal,1,_REACTION_TIME_,11251
1548089179,908ecce9e305fe45974bd6dfb3fb0e48,Form,11,4,exhaust_low_modal,1,q1,Sam
1548089179,908ecce9e305fe45974bd6dfb3fb0e48,Form,11,4,exhaust_low_modal,1,q2,green
1548089179,908ecce9e305fe45974bd6dfb3fb0e48,Form,11,4,exhaust_low_modal,1,_REACTION_TIME_,13576
1548089179,908ecce9e305fe45974bd6dfb3fb0e48,Form,13,0,outro,NULL,nativeq,yes
1548089179,908ecce9e305fe45974bd6dfb3fb0e48,Form,13,0,outro,NULL,_REACTION_TIME_,6725
#
# Results on Monday January 21 2019 16:53:30 UTC.
# USER AGENT: Mozilla/5.0 (X11; CrOS x86_64 11210.0.0) AppleWebKit/537.36 (KHTML, like Gecko) Chrome/72.0.3593.0 Safari/537.36
# Design number was non-random = 95
#
# Columns below this comment are as follows:
# 1. Time results were received.
# 2. MD5 hash of participant's IP address.
# 3. Controller name.
# 4. Item number.
# 5. Element number.
# 6. Type.
# 7. Group.
# 8. Field name.
# 9. Field value.
1548089611,0f673e915466f3616d2f3d010a2688c6,Form,0,0,intro,NULL,_REACTION_TIME_,4248
1548089611,0f673e915466f3616d2f3d010a2688c6,Form,12,3,both_low_modal,1,input,yes
1548089611,0f673e915466f3616d2f3d010a2688c6,Form,12,3,both_low_modal,1,input,yes
1548089611,0f673e915466f3616d2f3d010a2688c6,Form,12,3,both_low_modal,1,_REACTION_TIME_,15607
1548089611,0f673e915466f3616d2f3d010a2688c6,Form,12,4,both_low_modal,1,q1,Sam
1548089611,0f673e915466f3616d2f3d010a2688c6,Form,12,4,both_low_modal,1,q2,green
1548089611,0f673e915466f3616d2f3d010a2688c6,Form,12,4,both_low_modal,1,_REACTION_TIME_,8638
1548089611,0f673e915466f3616d2f3d010a2688c6,Form,13,0,outro,NULL,nativeq,yes
1548089611,0f673e915466f3616d2f3d010a2688c6,Form,13,0,outro,NULL,_REACTION_TIME_,248069
#
# Results on Monday January 21 2019 16:55:33 UTC.
# USER AGENT: Mozilla/5.0 (Windows NT 10.0; Win64; x64) AppleWebKit/537.36 (KHTML, like Gecko) Chrome/71.0.3578.98 Safari/537.36
# Design number was non-random = 96
#
# Columns below this comment are as follows:
# 1. Time results were received.
# 2. MD5 hash of participant's IP address.
# 3. Controller name.
# 4. Item number.
# 5. Element number.
# 6. Type.
# 7. Group.
# 8. Field name.
# 9. Field value.
1548089733,d0c9276905ef7dd296c6407da74db637,Form,0,0,intro,NULL,_REACTION_TIME_,11868
1548089733,d0c9276905ef7dd296c6407da74db637,Form,1,3,single_high_nomodal,1,input,yes
1548089733,d0c9276905ef7dd296c6407da74db637,Form,1,3,single_high_nomodal,1,input,no
1548089733,d0c9276905ef7dd296c6407da74db637,Form,1,3,single_high_nomodal,1,_REACTION_TIME_,32526
1548089733,d0c9276905ef7dd296c6407da74db637,Form,1,4,single_high_nomodal,1,q1,Sam
1548089733,d0c9276905ef7dd296c6407da74db637,Form,1,4,single_high_nomodal,1,q2,green
1548089733,d0c9276905ef7dd296c6407da74db637,Form,1,4,single_high_nomodal,1,_REACTION_TIME_,7927
1548089733,d0c9276905ef7dd296c6407da74db637,Form,13,0,outro,NULL,nativeq,yes
1548089733,d0c9276905ef7dd296c6407da74db637,Form,13,0,outro,NULL,_REACTION_TIME_,12942
#
# Results on Monday January 21 2019 20:20:57 UTC.
# USER AGENT: Mozilla/5.0 (Macintosh; Intel Mac OS X 10_14_0) AppleWebKit/537.36 (KHTML, like Gecko) Chrome/70.0.3538.110 Safari/537.36
# Design number was non-random = 97
#
# Columns below this comment are as follows:
# 1. Time results were received.
# 2. MD5 hash of participant's IP address.
# 3. Controller name.
# 4. Item number.
# 5. Element number.
# 6. Type.
# 7. Group.
# 8. Field name.
# 9. Field value.
1548102057,7fce9a87481224a3a006cd4fcdb79e97,Form,0,0,intro,NULL,_REACTION_TIME_,1940
1548102057,7fce9a87481224a3a006cd4fcdb79e97,Form,2,3,exhaust_high_nomodal,1,input,yes
1548102057,7fce9a87481224a3a006cd4fcdb79e97,Form,2,3,exhaust_high_nomodal,1,input,no
1548102057,7fce9a87481224a3a006cd4fcdb79e97,Form,2,3,exhaust_high_nomodal,1,_REACTION_TIME_,11632
1548102057,7fce9a87481224a3a006cd4fcdb79e97,Form,2,4,exhaust_high_nomodal,1,q1,Sam
1548102057,7fce9a87481224a3a006cd4fcdb79e97,Form,2,4,exhaust_high_nomodal,1,q2,green
1548102057,7fce9a87481224a3a006cd4fcdb79e97,Form,2,4,exhaust_high_nomodal,1,_REACTION_TIME_,3119
1548102057,7fce9a87481224a3a006cd4fcdb79e97,Form,13,0,outro,NULL,nativeq,no
1548102057,7fce9a87481224a3a006cd4fcdb79e97,Form,13,0,outro,NULL,_REACTION_TIME_,3512
#
# Results on Monday January 21 2019 20:22:42 UTC.
# USER AGENT: Mozilla/5.0 (Macintosh; Intel Mac OS X 10_14_0) AppleWebKit/537.36 (KHTML, like Gecko) Chrome/70.0.3538.110 Safari/537.36
# Design number was non-random = 98
#
# Columns below this comment are as follows:
# 1. Time results were received.
# 2. MD5 hash of participant's IP address.
# 3. Controller name.
# 4. Item number.
# 5. Element number.
# 6. Type.
# 7. Group.
# 8. Field name.
# 9. Field value.
1548102162,7fce9a87481224a3a006cd4fcdb79e97,Form,0,0,intro,NULL,_REACTION_TIME_,1870
1548102162,7fce9a87481224a3a006cd4fcdb79e97,Form,3,3,both_high_nomodal,1,input,yes
1548102162,7fce9a87481224a3a006cd4fcdb79e97,Form,3,3,both_high_nomodal,1,input,yes
1548102162,7fce9a87481224a3a006cd4fcdb79e97,Form,3,3,both_high_nomodal,1,_REACTION_TIME_,4713
1548102162,7fce9a87481224a3a006cd4fcdb79e97,Form,3,4,both_high_nomodal,1,q1,Alex
1548102162,7fce9a87481224a3a006cd4fcdb79e97,Form,3,4,both_high_nomodal,1,q2,green
1548102162,7fce9a87481224a3a006cd4fcdb79e97,Form,3,4,both_high_nomodal,1,_REACTION_TIME_,2687
1548102162,7fce9a87481224a3a006cd4fcdb79e97,Form,13,0,outro,NULL,nativeq,no
1548102162,7fce9a87481224a3a006cd4fcdb79e97,Form,13,0,outro,NULL,_REACTION_TIME_,1492
#
# Results on Monday January 21 2019 20:22:58 UTC.
# USER AGENT: Mozilla/5.0 (Macintosh; Intel Mac OS X 10_14_0) AppleWebKit/537.36 (KHTML, like Gecko) Chrome/70.0.3538.110 Safari/537.36
# Design number was non-random = 98
#
# Columns below this comment are as follows:
# 1. Time results were received.
# 2. MD5 hash of participant's IP address.
# 3. Controller name.
# 4. Item number.
# 5. Element number.
# 6. Type.
# 7. Group.
# 8. Field name.
# 9. Field value.
1548102179,7fce9a87481224a3a006cd4fcdb79e97,Form,0,0,intro,NULL,_REACTION_TIME_,17637
1548102179,7fce9a87481224a3a006cd4fcdb79e97,Form,3,3,both_high_nomodal,1,input,yes
1548102179,7fce9a87481224a3a006cd4fcdb79e97,Form,3,3,both_high_nomodal,1,input,yes
1548102179,7fce9a87481224a3a006cd4fcdb79e97,Form,3,3,both_high_nomodal,1,_REACTION_TIME_,7434
1548102179,7fce9a87481224a3a006cd4fcdb79e97,Form,3,4,both_high_nomodal,1,q1,Alex
1548102179,7fce9a87481224a3a006cd4fcdb79e97,Form,3,4,both_high_nomodal,1,q2,green
1548102179,7fce9a87481224a3a006cd4fcdb79e97,Form,3,4,both_high_nomodal,1,_REACTION_TIME_,3474
1548102179,7fce9a87481224a3a006cd4fcdb79e97,Form,13,0,outro,NULL,nativeq,no
1548102179,7fce9a87481224a3a006cd4fcdb79e97,Form,13,0,outro,NULL,_REACTION_TIME_,1618
#
# Results on Monday January 21 2019 20:23:14 UTC.
# USER AGENT: Mozilla/5.0 (Macintosh; Intel Mac OS X 10_14_0) AppleWebKit/537.36 (KHTML, like Gecko) Chrome/70.0.3538.110 Safari/537.36
# Design number was non-random = 100
#
# Columns below this comment are as follows:
# 1. Time results were received.
# 2. MD5 hash of participant's IP address.
# 3. Controller name.
# 4. Item number.
# 5. Element number.
# 6. Type.
# 7. Group.
# 8. Field name.
# 9. Field value.
1548102195,7fce9a87481224a3a006cd4fcdb79e97,Form,0,0,intro,NULL,_REACTION_TIME_,917
1548102195,7fce9a87481224a3a006cd4fcdb79e97,Form,5,3,exhaust_low_nomodal,1,input,no
1548102195,7fce9a87481224a3a006cd4fcdb79e97,Form,5,3,exhaust_low_nomodal,1,input,yes
1548102195,7fce9a87481224a3a006cd4fcdb79e97,Form,5,3,exhaust_low_nomodal,1,_REACTION_TIME_,3361
1548102195,7fce9a87481224a3a006cd4fcdb79e97,Form,5,4,exhaust_low_nomodal,1,q1,Alex
1548102195,7fce9a87481224a3a006cd4fcdb79e97,Form,5,4,exhaust_low_nomodal,1,q2,green
1548102195,7fce9a87481224a3a006cd4fcdb79e97,Form,5,4,exhaust_low_nomodal,1,_REACTION_TIME_,3339
1548102195,7fce9a87481224a3a006cd4fcdb79e97,Form,13,0,outro,NULL,nativeq,no
1548102195,7fce9a87481224a3a006cd4fcdb79e97,Form,13,0,outro,NULL,_REACTION_TIME_,1279
#
# Results on Monday January 21 2019 20:23:31 UTC.
# USER AGENT: Mozilla/5.0 (Macintosh; Intel Mac OS X 10_14_0) AppleWebKit/537.36 (KHTML, like Gecko) Chrome/70.0.3538.110 Safari/537.36
# Design number was non-random = 101
#
# Columns below this comment are as follows:
# 1. Time results were received.
# 2. MD5 hash of participant's IP address.
# 3. Controller name.
# 4. Item number.
# 5. Element number.
# 6. Type.
# 7. Group.
# 8. Field name.
# 9. Field value.
1548102212,7fce9a87481224a3a006cd4fcdb79e97,Form,0,0,intro,NULL,_REACTION_TIME_,870
1548102212,7fce9a87481224a3a006cd4fcdb79e97,Form,6,3,both_low_nomodal,1,input,yes
1548102212,7fce9a87481224a3a006cd4fcdb79e97,Form,6,3,both_low_nomodal,1,input,yes
1548102212,7fce9a87481224a3a006cd4fcdb79e97,Form,6,3,both_low_nomodal,1,_REACTION_TIME_,6107
1548102212,7fce9a87481224a3a006cd4fcdb79e97,Form,6,4,both_low_nomodal,1,q1,Alex
1548102212,7fce9a87481224a3a006cd4fcdb79e97,Form,6,4,both_low_nomodal,1,q2,green
1548102212,7fce9a87481224a3a006cd4fcdb79e97,Form,6,4,both_low_nomodal,1,_REACTION_TIME_,2742
1548102212,7fce9a87481224a3a006cd4fcdb79e97,Form,13,0,outro,NULL,nativeq,no
1548102212,7fce9a87481224a3a006cd4fcdb79e97,Form,13,0,outro,NULL,_REACTION_TIME_,1346
#
# Results on Monday January 21 2019 20:23:50 UTC.
# USER AGENT: Mozilla/5.0 (Macintosh; Intel Mac OS X 10_14_0) AppleWebKit/537.36 (KHTML, like Gecko) Chrome/70.0.3538.110 Safari/537.36
# Design number was non-random = 102
#
# Columns below this comment are as follows:
# 1. Time results were received.
# 2. MD5 hash of participant's IP address.
# 3. Controller name.
# 4. Item number.
# 5. Element number.
# 6. Type.
# 7. Group.
# 8. Field name.
# 9. Field value.
1548102230,7fce9a87481224a3a006cd4fcdb79e97,Form,0,0,intro,NULL,_REACTION_TIME_,872
1548102230,7fce9a87481224a3a006cd4fcdb79e97,Form,7,3,single_high_modal,1,input,yes
1548102230,7fce9a87481224a3a006cd4fcdb79e97,Form,7,3,single_high_modal,1,input,no
1548102230,7fce9a87481224a3a006cd4fcdb79e97,Form,7,3,single_high_modal,1,_REACTION_TIME_,3519
1548102230,7fce9a87481224a3a006cd4fcdb79e97,Form,7,4,single_high_modal,1,q1,Alex
1548102230,7fce9a87481224a3a006cd4fcdb79e97,Form,7,4,single_high_modal,1,q2,green
1548102230,7fce9a87481224a3a006cd4fcdb79e97,Form,7,4,single_high_modal,1,_REACTION_TIME_,2696
1548102230,7fce9a87481224a3a006cd4fcdb79e97,Form,13,0,outro,NULL,nativeq,no
1548102230,7fce9a87481224a3a006cd4fcdb79e97,Form,13,0,outro,NULL,_REACTION_TIME_,1392
#
# Results on Monday January 21 2019 20:24:06 UTC.
# USER AGENT: Mozilla/5.0 (Macintosh; Intel Mac OS X 10_14_0) AppleWebKit/537.36 (KHTML, like Gecko) Chrome/70.0.3538.110 Safari/537.36
# Design number was non-random = 103
#
# Columns below this comment are as follows:
# 1. Time results were received.
# 2. MD5 hash of participant's IP address.
# 3. Controller name.
# 4. Item number.
# 5. Element number.
# 6. Type.
# 7. Group.
# 8. Field name.
# 9. Field value.
1548102247,7fce9a87481224a3a006cd4fcdb79e97,Form,0,0,intro,NULL,_REACTION_TIME_,959
1548102247,7fce9a87481224a3a006cd4fcdb79e97,Form,8,3,exhaust_high_modal,1,input,yes
1548102247,7fce9a87481224a3a006cd4fcdb79e97,Form,8,3,exhaust_high_modal,1,input,no
1548102247,7fce9a87481224a3a006cd4fcdb79e97,Form,8,3,exhaust_high_modal,1,_REACTION_TIME_,4150
1548102247,7fce9a87481224a3a006cd4fcdb79e97,Form,8,4,exhaust_high_modal,1,q1,Alex
1548102247,7fce9a87481224a3a006cd4fcdb79e97,Form,8,4,exhaust_high_modal,1,q2,green
1548102247,7fce9a87481224a3a006cd4fcdb79e97,Form,8,4,exhaust_high_modal,1,_REACTION_TIME_,2530
1548102247,7fce9a87481224a3a006cd4fcdb79e97,Form,13,0,outro,NULL,nativeq,no
1548102247,7fce9a87481224a3a006cd4fcdb79e97,Form,13,0,outro,NULL,_REACTION_TIME_,1514
#
# Results on Monday January 21 2019 20:26:41 UTC.
# USER AGENT: Mozilla/5.0 (Macintosh; Intel Mac OS X 10_14_0) AppleWebKit/537.36 (KHTML, like Gecko) Chrome/70.0.3538.110 Safari/537.36
# Design number was non-random = 104
#
# Columns below this comment are as follows:
# 1. Time results were received.
# 2. MD5 hash of participant's IP address.
# 3. Controller name.
# 4. Item number.
# 5. Element number.
# 6. Type.
# 7. Group.
# 8. Field name.
# 9. Field value.
1548102402,7fce9a87481224a3a006cd4fcdb79e97,Form,0,0,intro,NULL,_REACTION_TIME_,1796
1548102402,7fce9a87481224a3a006cd4fcdb79e97,Form,9,3,both_high_modal,1,input,yes
1548102402,7fce9a87481224a3a006cd4fcdb79e97,Form,9,3,both_high_modal,1,input,yes
1548102402,7fce9a87481224a3a006cd4fcdb79e97,Form,9,3,both_high_modal,1,_REACTION_TIME_,1956
1548102402,7fce9a87481224a3a006cd4fcdb79e97,Form,9,4,both_high_modal,1,q1,Alex
1548102402,7fce9a87481224a3a006cd4fcdb79e97,Form,9,4,both_high_modal,1,q2,green
1548102402,7fce9a87481224a3a006cd4fcdb79e97,Form,9,4,both_high_modal,1,_REACTION_TIME_,2416
1548102402,7fce9a87481224a3a006cd4fcdb79e97,Form,13,0,outro,NULL,nativeq,no
1548102402,7fce9a87481224a3a006cd4fcdb79e97,Form,13,0,outro,NULL,_REACTION_TIME_,1965
#
# Results on Monday January 21 2019 20:27:00 UTC.
# USER AGENT: Mozilla/5.0 (Macintosh; Intel Mac OS X 10_14_0) AppleWebKit/537.36 (KHTML, like Gecko) Chrome/70.0.3538.110 Safari/537.36
# Design number was non-random = 105
#
# Columns below this comment are as follows:
# 1. Time results were received.
# 2. MD5 hash of participant's IP address.
# 3. Controller name.
# 4. Item number.
# 5. Element number.
# 6. Type.
# 7. Group.
# 8. Field name.
# 9. Field value.
1548102421,7fce9a87481224a3a006cd4fcdb79e97,Form,0,0,intro,NULL,_REACTION_TIME_,2318
1548102421,7fce9a87481224a3a006cd4fcdb79e97,Form,10,3,single_low_modal,1,input,no
1548102421,7fce9a87481224a3a006cd4fcdb79e97,Form,10,3,single_low_modal,1,input,yes
1548102421,7fce9a87481224a3a006cd4fcdb79e97,Form,10,3,single_low_modal,1,_REACTION_TIME_,3518
1548102421,7fce9a87481224a3a006cd4fcdb79e97,Form,10,4,single_low_modal,1,q1,Alex
1548102421,7fce9a87481224a3a006cd4fcdb79e97,Form,10,4,single_low_modal,1,q2,green
1548102421,7fce9a87481224a3a006cd4fcdb79e97,Form,10,4,single_low_modal,1,_REACTION_TIME_,2744
1548102421,7fce9a87481224a3a006cd4fcdb79e97,Form,13,0,outro,NULL,nativeq,no
1548102421,7fce9a87481224a3a006cd4fcdb79e97,Form,13,0,outro,NULL,_REACTION_TIME_,1446
#
# Results on Monday January 21 2019 20:27:17 UTC.
# USER AGENT: Mozilla/5.0 (Macintosh; Intel Mac OS X 10_14_0) AppleWebKit/537.36 (KHTML, like Gecko) Chrome/70.0.3538.110 Safari/537.36
# Design number was non-random = 106
#
# Columns below this comment are as follows:
# 1. Time results were received.
# 2. MD5 hash of participant's IP address.
# 3. Controller name.
# 4. Item number.
# 5. Element number.
# 6. Type.
# 7. Group.
# 8. Field name.
# 9. Field value.
1548102438,7fce9a87481224a3a006cd4fcdb79e97,Form,0,0,intro,NULL,_REACTION_TIME_,803
1548102438,7fce9a87481224a3a006cd4fcdb79e97,Form,11,3,exhaust_low_modal,1,input,no
1548102438,7fce9a87481224a3a006cd4fcdb79e97,Form,11,3,exhaust_low_modal,1,input,yes
1548102438,7fce9a87481224a3a006cd4fcdb79e97,Form,11,3,exhaust_low_modal,1,_REACTION_TIME_,1911
1548102438,7fce9a87481224a3a006cd4fcdb79e97,Form,11,4,exhaust_low_modal,1,q1,Alex
1548102438,7fce9a87481224a3a006cd4fcdb79e97,Form,11,4,exhaust_low_modal,1,q2,green
1548102438,7fce9a87481224a3a006cd4fcdb79e97,Form,11,4,exhaust_low_modal,1,_REACTION_TIME_,3014
1548102438,7fce9a87481224a3a006cd4fcdb79e97,Form,13,0,outro,NULL,nativeq,no
1548102438,7fce9a87481224a3a006cd4fcdb79e97,Form,13,0,outro,NULL,_REACTION_TIME_,2865
#
# Results on Monday January 21 2019 20:27:33 UTC.
# USER AGENT: Mozilla/5.0 (Macintosh; Intel Mac OS X 10_14_0) AppleWebKit/537.36 (KHTML, like Gecko) Chrome/70.0.3538.110 Safari/537.36
# Design number was non-random = 107
#
# Columns below this comment are as follows:
# 1. Time results were received.
# 2. MD5 hash of participant's IP address.
# 3. Controller name.
# 4. Item number.
# 5. Element number.
# 6. Type.
# 7. Group.
# 8. Field name.
# 9. Field value.
1548102453,7fce9a87481224a3a006cd4fcdb79e97,Form,0,0,intro,NULL,_REACTION_TIME_,749
1548102453,7fce9a87481224a3a006cd4fcdb79e97,Form,12,3,both_low_modal,1,input,yes
1548102453,7fce9a87481224a3a006cd4fcdb79e97,Form,12,3,both_low_modal,1,input,yes
1548102453,7fce9a87481224a3a006cd4fcdb79e97,Form,12,3,both_low_modal,1,_REACTION_TIME_,2676
1548102453,7fce9a87481224a3a006cd4fcdb79e97,Form,12,4,both_low_modal,1,q1,Alex
1548102453,7fce9a87481224a3a006cd4fcdb79e97,Form,12,4,both_low_modal,1,q2,green
1548102453,7fce9a87481224a3a006cd4fcdb79e97,Form,12,4,both_low_modal,1,_REACTION_TIME_,2609
1548102453,7fce9a87481224a3a006cd4fcdb79e97,Form,13,0,outro,NULL,nativeq,no
1548102453,7fce9a87481224a3a006cd4fcdb79e97,Form,13,0,outro,NULL,_REACTION_TIME_,1324
#
# Results on Monday January 21 2019 20:27:49 UTC.
# USER AGENT: Mozilla/5.0 (Macintosh; Intel Mac OS X 10_14_0) AppleWebKit/537.36 (KHTML, like Gecko) Chrome/70.0.3538.110 Safari/537.36
# Design number was non-random = 108
#
# Columns below this comment are as follows:
# 1. Time results were received.
# 2. MD5 hash of participant's IP address.
# 3. Controller name.
# 4. Item number.
# 5. Element number.
# 6. Type.
# 7. Group.
# 8. Field name.
# 9. Field value.
1548102470,7fce9a87481224a3a006cd4fcdb79e97,Form,0,0,intro,NULL,_REACTION_TIME_,806
1548102470,7fce9a87481224a3a006cd4fcdb79e97,Form,1,3,single_high_nomodal,1,input,yes
1548102470,7fce9a87481224a3a006cd4fcdb79e97,Form,1,3,single_high_nomodal,1,input,no
1548102470,7fce9a87481224a3a006cd4fcdb79e97,Form,1,3,single_high_nomodal,1,_REACTION_TIME_,5398
1548102470,7fce9a87481224a3a006cd4fcdb79e97,Form,1,4,single_high_nomodal,1,q1,Alex
1548102470,7fce9a87481224a3a006cd4fcdb79e97,Form,1,4,single_high_nomodal,1,q2,green
1548102470,7fce9a87481224a3a006cd4fcdb79e97,Form,1,4,single_high_nomodal,1,_REACTION_TIME_,2384
1548102470,7fce9a87481224a3a006cd4fcdb79e97,Form,13,0,outro,NULL,nativeq,no
1548102470,7fce9a87481224a3a006cd4fcdb79e97,Form,13,0,outro,NULL,_REACTION_TIME_,1797
#
# Results on Monday January 21 2019 20:28:07 UTC.
# USER AGENT: Mozilla/5.0 (Macintosh; Intel Mac OS X 10_14_0) AppleWebKit/537.36 (KHTML, like Gecko) Chrome/70.0.3538.110 Safari/537.36
# Design number was non-random = 109
#
# Columns below this comment are as follows:
# 1. Time results were received.
# 2. MD5 hash of participant's IP address.
# 3. Controller name.
# 4. Item number.
# 5. Element number.
# 6. Type.
# 7. Group.
# 8. Field name.
# 9. Field value.
1548102487,7fce9a87481224a3a006cd4fcdb79e97,Form,0,0,intro,NULL,_REACTION_TIME_,1506
1548102487,7fce9a87481224a3a006cd4fcdb79e97,Form,2,3,exhaust_high_nomodal,1,input,yes
1548102487,7fce9a87481224a3a006cd4fcdb79e97,Form,2,3,exhaust_high_nomodal,1,input,no
1548102487,7fce9a87481224a3a006cd4fcdb79e97,Form,2,3,exhaust_high_nomodal,1,_REACTION_TIME_,3080
1548102487,7fce9a87481224a3a006cd4fcdb79e97,Form,2,4,exhaust_high_nomodal,1,q1,Alex
1548102487,7fce9a87481224a3a006cd4fcdb79e97,Form,2,4,exhaust_high_nomodal,1,q2,green
1548102487,7fce9a87481224a3a006cd4fcdb79e97,Form,2,4,exhaust_high_nomodal,1,_REACTION_TIME_,3215
1548102487,7fce9a87481224a3a006cd4fcdb79e97,Form,13,0,outro,NULL,nativeq,no
1548102487,7fce9a87481224a3a006cd4fcdb79e97,Form,13,0,outro,NULL,_REACTION_TIME_,2011
#
# Results on Monday January 21 2019 20:28:20 UTC.
# USER AGENT: Mozilla/5.0 (Macintosh; Intel Mac OS X 10_14_0) AppleWebKit/537.36 (KHTML, like Gecko) Chrome/70.0.3538.110 Safari/537.36
# Design number was non-random = 110
#
# Columns below this comment are as follows:
# 1. Time results were received.
# 2. MD5 hash of participant's IP address.
# 3. Controller name.
# 4. Item number.
# 5. Element number.
# 6. Type.
# 7. Group.
# 8. Field name.
# 9. Field value.
1548102501,7fce9a87481224a3a006cd4fcdb79e97,Form,0,0,intro,NULL,_REACTION_TIME_,1304
1548102501,7fce9a87481224a3a006cd4fcdb79e97,Form,3,3,both_high_nomodal,1,input,yes
1548102501,7fce9a87481224a3a006cd4fcdb79e97,Form,3,3,both_high_nomodal,1,input,yes
1548102501,7fce9a87481224a3a006cd4fcdb79e97,Form,3,3,both_high_nomodal,1,_REACTION_TIME_,2722
1548102501,7fce9a87481224a3a006cd4fcdb79e97,Form,3,4,both_high_nomodal,1,q1,Alex
1548102501,7fce9a87481224a3a006cd4fcdb79e97,Form,3,4,both_high_nomodal,1,q2,green
1548102501,7fce9a87481224a3a006cd4fcdb79e97,Form,3,4,both_high_nomodal,1,_REACTION_TIME_,2563
1548102501,7fce9a87481224a3a006cd4fcdb79e97,Form,13,0,outro,NULL,nativeq,no
1548102501,7fce9a87481224a3a006cd4fcdb79e97,Form,13,0,outro,NULL,_REACTION_TIME_,1133
#
# Results on Monday January 21 2019 20:28:35 UTC.
# USER AGENT: Mozilla/5.0 (Macintosh; Intel Mac OS X 10_14_0) AppleWebKit/537.36 (KHTML, like Gecko) Chrome/70.0.3538.110 Safari/537.36
# Design number was non-random = 111
#
# Columns below this comment are as follows:
# 1. Time results were received.
# 2. MD5 hash of participant's IP address.
# 3. Controller name.
# 4. Item number.
# 5. Element number.
# 6. Type.
# 7. Group.
# 8. Field name.
# 9. Field value.
1548102516,7fce9a87481224a3a006cd4fcdb79e97,Form,0,0,intro,NULL,_REACTION_TIME_,705
1548102516,7fce9a87481224a3a006cd4fcdb79e97,Form,4,3,single_low_nomodal,1,input,no
1548102516,7fce9a87481224a3a006cd4fcdb79e97,Form,4,3,single_low_nomodal,1,input,yes
1548102516,7fce9a87481224a3a006cd4fcdb79e97,Form,4,3,single_low_nomodal,1,_REACTION_TIME_,3442
1548102516,7fce9a87481224a3a006cd4fcdb79e97,Form,4,4,single_low_nomodal,1,q1,Alex
1548102516,7fce9a87481224a3a006cd4fcdb79e97,Form,4,4,single_low_nomodal,1,q2,green
1548102516,7fce9a87481224a3a006cd4fcdb79e97,Form,4,4,single_low_nomodal,1,_REACTION_TIME_,2608
1548102516,7fce9a87481224a3a006cd4fcdb79e97,Form,13,0,outro,NULL,nativeq,no
1548102516,7fce9a87481224a3a006cd4fcdb79e97,Form,13,0,outro,NULL,_REACTION_TIME_,1650
#
# Results on Monday January 21 2019 20:28:53 UTC.
# USER AGENT: Mozilla/5.0 (Macintosh; Intel Mac OS X 10_14_0) AppleWebKit/537.36 (KHTML, like Gecko) Chrome/70.0.3538.110 Safari/537.36
# Design number was non-random = 112
#
# Columns below this comment are as follows:
# 1. Time results were received.
# 2. MD5 hash of participant's IP address.
# 3. Controller name.
# 4. Item number.
# 5. Element number.
# 6. Type.
# 7. Group.
# 8. Field name.
# 9. Field value.
1548102533,7fce9a87481224a3a006cd4fcdb79e97,Form,0,0,intro,NULL,_REACTION_TIME_,918
1548102533,7fce9a87481224a3a006cd4fcdb79e97,Form,5,3,exhaust_low_nomodal,1,input,no
1548102533,7fce9a87481224a3a006cd4fcdb79e97,Form,5,3,exhaust_low_nomodal,1,input,yes
1548102533,7fce9a87481224a3a006cd4fcdb79e97,Form,5,3,exhaust_low_nomodal,1,_REACTION_TIME_,3405
1548102533,7fce9a87481224a3a006cd4fcdb79e97,Form,5,4,exhaust_low_nomodal,1,q1,Alex
1548102533,7fce9a87481224a3a006cd4fcdb79e97,Form,5,4,exhaust_low_nomodal,1,q2,green
1548102533,7fce9a87481224a3a006cd4fcdb79e97,Form,5,4,exhaust_low_nomodal,1,_REACTION_TIME_,2688
1548102533,7fce9a87481224a3a006cd4fcdb79e97,Form,13,0,outro,NULL,nativeq,no
1548102533,7fce9a87481224a3a006cd4fcdb79e97,Form,13,0,outro,NULL,_REACTION_TIME_,1333
#
# Results on Monday January 21 2019 20:29:09 UTC.
# USER AGENT: Mozilla/5.0 (Macintosh; Intel Mac OS X 10_14_0) AppleWebKit/537.36 (KHTML, like Gecko) Chrome/70.0.3538.110 Safari/537.36
# Design number was non-random = 113
#
# Columns below this comment are as follows:
# 1. Time results were received.
# 2. MD5 hash of participant's IP address.
# 3. Controller name.
# 4. Item number.
# 5. Element number.
# 6. Type.
# 7. Group.
# 8. Field name.
# 9. Field value.
1548102549,7fce9a87481224a3a006cd4fcdb79e97,Form,0,0,intro,NULL,_REACTION_TIME_,1228
1548102549,7fce9a87481224a3a006cd4fcdb79e97,Form,6,3,both_low_nomodal,1,input,yes
1548102549,7fce9a87481224a3a006cd4fcdb79e97,Form,6,3,both_low_nomodal,1,input,yes
1548102549,7fce9a87481224a3a006cd4fcdb79e97,Form,6,3,both_low_nomodal,1,_REACTION_TIME_,3374
1548102549,7fce9a87481224a3a006cd4fcdb79e97,Form,6,4,both_low_nomodal,1,q1,Alex
1548102549,7fce9a87481224a3a006cd4fcdb79e97,Form,6,4,both_low_nomodal,1,q2,green
1548102549,7fce9a87481224a3a006cd4fcdb79e97,Form,6,4,both_low_nomodal,1,_REACTION_TIME_,2631
1548102549,7fce9a87481224a3a006cd4fcdb79e97,Form,13,0,outro,NULL,nativeq,no
1548102549,7fce9a87481224a3a006cd4fcdb79e97,Form,13,0,outro,NULL,_REACTION_TIME_,1143
#
# Results on Monday January 21 2019 20:29:26 UTC.
# USER AGENT: Mozilla/5.0 (Macintosh; Intel Mac OS X 10_14_0) AppleWebKit/537.36 (KHTML, like Gecko) Chrome/70.0.3538.110 Safari/537.36
# Design number was non-random = 114
#
# Columns below this comment are as follows:
# 1. Time results were received.
# 2. MD5 hash of participant's IP address.
# 3. Controller name.
# 4. Item number.
# 5. Element number.
# 6. Type.
# 7. Group.
# 8. Field name.
# 9. Field value.
1548102567,7fce9a87481224a3a006cd4fcdb79e97,Form,0,0,intro,NULL,_REACTION_TIME_,777
1548102567,7fce9a87481224a3a006cd4fcdb79e97,Form,7,3,single_high_modal,1,input,yes
1548102567,7fce9a87481224a3a006cd4fcdb79e97,Form,7,3,single_high_modal,1,input,no
1548102567,7fce9a87481224a3a006cd4fcdb79e97,Form,7,3,single_high_modal,1,_REACTION_TIME_,2451
1548102567,7fce9a87481224a3a006cd4fcdb79e97,Form,7,4,single_high_modal,1,q1,Alex
1548102567,7fce9a87481224a3a006cd4fcdb79e97,Form,7,4,single_high_modal,1,q2,green
1548102567,7fce9a87481224a3a006cd4fcdb79e97,Form,7,4,single_high_modal,1,_REACTION_TIME_,2821
1548102567,7fce9a87481224a3a006cd4fcdb79e97,Form,13,0,outro,NULL,nativeq,no
1548102567,7fce9a87481224a3a006cd4fcdb79e97,Form,13,0,outro,NULL,_REACTION_TIME_,2011
#
# Results on Monday January 21 2019 21:32:57 UTC.
# USER AGENT: Mozilla/5.0 (Macintosh; Intel Mac OS X 10_11_6) AppleWebKit/537.36 (KHTML, like Gecko) Chrome/71.0.3578.98 Safari/537.36
# Design number was non-random = 115
#
# Columns below this comment are as follows:
# 1. Time results were received.
# 2. MD5 hash of participant's IP address.
# 3. Controller name.
# 4. Item number.
# 5. Element number.
# 6. Type.
# 7. Group.
# 8. Field name.
# 9. Field value.
1548106378,cfe0e38861f257aa5ca0e6449154e1eb,Form,0,0,intro,NULL,_REACTION_TIME_,1435
1548106378,cfe0e38861f257aa5ca0e6449154e1eb,Form,8,3,exhaust_high_modal,1,input1,no
1548106378,cfe0e38861f257aa5ca0e6449154e1eb,Form,8,3,exhaust_high_modal,1,input2,no
1548106378,cfe0e38861f257aa5ca0e6449154e1eb,Form,8,3,exhaust_high_modal,1,_REACTION_TIME_,5116
1548106378,cfe0e38861f257aa5ca0e6449154e1eb,Form,8,4,exhaust_high_modal,1,_REACTION_TIME_,3181
1548106378,cfe0e38861f257aa5ca0e6449154e1eb,Form,13,0,outro,NULL,nativeq,no
1548106378,cfe0e38861f257aa5ca0e6449154e1eb,Form,13,0,outro,NULL,_REACTION_TIME_,3270
#
# Results on Monday January 21 2019 21:50:27 UTC.
# USER AGENT: Mozilla/5.0 (Windows NT 10.0; Win64; x64) AppleWebKit/537.36 (KHTML, like Gecko) Chrome/71.0.3578.98 Safari/537.36
# Design number was non-random = 116
#
# Columns below this comment are as follows:
# 1. Time results were received.
# 2. MD5 hash of participant's IP address.
# 3. Controller name.
# 4. Item number.
# 5. Element number.
# 6. Type.
# 7. Group.
# 8. Field name.
# 9. Field value.
1548107427,46df330cb1cd327e6643294f182b770f,Form,0,0,intro,NULL,_REACTION_TIME_,4862
1548107427,46df330cb1cd327e6643294f182b770f,Form,9,3,both_high_modal,1,input1,no
1548107427,46df330cb1cd327e6643294f182b770f,Form,9,3,both_high_modal,1,input2,yes
1548107427,46df330cb1cd327e6643294f182b770f,Form,9,3,both_high_modal,1,_REACTION_TIME_,16071
1548107427,46df330cb1cd327e6643294f182b770f,Form,9,4,both_high_modal,1,q1,Alex
1548107427,46df330cb1cd327e6643294f182b770f,Form,9,4,both_high_modal,1,q2,green
1548107427,46df330cb1cd327e6643294f182b770f,Form,9,4,both_high_modal,1,_REACTION_TIME_,6633
1548107427,46df330cb1cd327e6643294f182b770f,Form,13,0,outro,NULL,nativeq,yes
1548107427,46df330cb1cd327e6643294f182b770f,Form,13,0,outro,NULL,_REACTION_TIME_,12057
#
# Results on Monday January 21 2019 21:50:35 UTC.
# USER AGENT: Mozilla/5.0 (Windows NT 6.3; Win64; x64) AppleWebKit/537.36 (KHTML, like Gecko) Chrome/71.0.3578.98 Safari/537.36
# Design number was non-random = 116
#
# Columns below this comment are as follows:
# 1. Time results were received.
# 2. MD5 hash of participant's IP address.
# 3. Controller name.
# 4. Item number.
# 5. Element number.
# 6. Type.
# 7. Group.
# 8. Field name.
# 9. Field value.
1548107435,92dc96595945b94152c8abd6fd0bc91c,Form,0,0,intro,NULL,_REACTION_TIME_,14407
1548107435,92dc96595945b94152c8abd6fd0bc91c,Form,9,3,both_high_modal,1,input1,yes
1548107435,92dc96595945b94152c8abd6fd0bc91c,Form,9,3,both_high_modal,1,input2,yes
1548107435,92dc96595945b94152c8abd6fd0bc91c,Form,9,3,both_high_modal,1,_REACTION_TIME_,19791
1548107435,92dc96595945b94152c8abd6fd0bc91c,Form,9,4,both_high_modal,1,q1,Alex
1548107435,92dc96595945b94152c8abd6fd0bc91c,Form,9,4,both_high_modal,1,q2,green
1548107435,92dc96595945b94152c8abd6fd0bc91c,Form,9,4,both_high_modal,1,_REACTION_TIME_,18693
1548107435,92dc96595945b94152c8abd6fd0bc91c,Form,13,0,outro,NULL,nativeq,yes
1548107435,92dc96595945b94152c8abd6fd0bc91c,Form,13,0,outro,NULL,_REACTION_TIME_,5972
#
# Results on Monday January 21 2019 21:53:08 UTC.
# USER AGENT: Mozilla/5.0 (Windows NT 6.3; Win64; x64) AppleWebKit/537.36 (KHTML, like Gecko) Chrome/71.0.3578.98 Safari/537.36
# Design number was non-random = 118
#
# Columns below this comment are as follows:
# 1. Time results were received.
# 2. MD5 hash of participant's IP address.
# 3. Controller name.
# 4. Item number.
# 5. Element number.
# 6. Type.
# 7. Group.
# 8. Field name.
# 9. Field value.
1548107589,78577cc4419ce2e2348c5669a244d3ff,Form,0,0,intro,NULL,_REACTION_TIME_,18816
1548107589,78577cc4419ce2e2348c5669a244d3ff,Form,11,3,exhaust_low_modal,1,input1,no
1548107589,78577cc4419ce2e2348c5669a244d3ff,Form,11,3,exhaust_low_modal,1,input2,yes
1548107589,78577cc4419ce2e2348c5669a244d3ff,Form,11,3,exhaust_low_modal,1,_REACTION_TIME_,28872
1548107589,78577cc4419ce2e2348c5669a244d3ff,Form,11,4,exhaust_low_modal,1,q1,Alex
1548107589,78577cc4419ce2e2348c5669a244d3ff,Form,11,4,exhaust_low_modal,1,q2,green
1548107589,78577cc4419ce2e2348c5669a244d3ff,Form,11,4,exhaust_low_modal,1,_REACTION_TIME_,11043
1548107589,78577cc4419ce2e2348c5669a244d3ff,Form,13,0,outro,NULL,nativeq,no
1548107589,78577cc4419ce2e2348c5669a244d3ff,Form,13,0,outro,NULL,_REACTION_TIME_,20269
#
# Results on Monday January 21 2019 21:54:24 UTC.
# USER AGENT: Mozilla/5.0 (Windows NT 10.0; Win64; x64) AppleWebKit/537.36 (KHTML, like Gecko) Chrome/71.0.3578.98 Safari/537.36
# Design number was non-random = 119
#
# Columns below this comment are as follows:
# 1. Time results were received.
# 2. MD5 hash of participant's IP address.
# 3. Controller name.
# 4. Item number.
# 5. Element number.
# 6. Type.
# 7. Group.
# 8. Field name.
# 9. Field value.
1548107665,c0b509b96394cb10ddd42ea11a005253,Form,0,0,intro,NULL,_REACTION_TIME_,6429
1548107665,c0b509b96394cb10ddd42ea11a005253,Form,12,3,both_low_modal,1,input1,yes
1548107665,c0b509b96394cb10ddd42ea11a005253,Form,12,3,both_low_modal,1,input2,yes
1548107665,c0b509b96394cb10ddd42ea11a005253,Form,12,3,both_low_modal,1,_REACTION_TIME_,14501
1548107665,c0b509b96394cb10ddd42ea11a005253,Form,12,4,both_low_modal,1,q1,Alex
1548107665,c0b509b96394cb10ddd42ea11a005253,Form,12,4,both_low_modal,1,q2,green
1548107665,c0b509b96394cb10ddd42ea11a005253,Form,12,4,both_low_modal,1,_REACTION_TIME_,7948
1548107665,c0b509b96394cb10ddd42ea11a005253,Form,13,0,outro,NULL,nativeq,yes
1548107665,c0b509b96394cb10ddd42ea11a005253,Form,13,0,outro,NULL,_REACTION_TIME_,14355
#
# Results on Monday January 21 2019 21:56:27 UTC.
# USER AGENT: Mozilla/5.0 (Macintosh; Intel Mac OS X 10_13_6) AppleWebKit/537.36 (KHTML, like Gecko) Chrome/71.0.3578.98 Safari/537.36
# Design number was non-random = 120
#
# Columns below this comment are as follows:
# 1. Time results were received.
# 2. MD5 hash of participant's IP address.
# 3. Controller name.
# 4. Item number.
# 5. Element number.
# 6. Type.
# 7. Group.
# 8. Field name.
# 9. Field value.
1548107787,042a9025fc53a771a159d628fb440bb1,Form,0,0,intro,NULL,_REACTION_TIME_,3701
1548107787,042a9025fc53a771a159d628fb440bb1,Form,1,3,single_high_nomodal,1,input1,no
1548107787,042a9025fc53a771a159d628fb440bb1,Form,1,3,single_high_nomodal,1,input2,yes
1548107787,042a9025fc53a771a159d628fb440bb1,Form,1,3,single_high_nomodal,1,_REACTION_TIME_,10399
1548107787,042a9025fc53a771a159d628fb440bb1,Form,1,4,single_high_nomodal,1,q1,Alex
1548107787,042a9025fc53a771a159d628fb440bb1,Form,1,4,single_high_nomodal,1,q2,green
1548107787,042a9025fc53a771a159d628fb440bb1,Form,1,4,single_high_nomodal,1,_REACTION_TIME_,3869
1548107787,042a9025fc53a771a159d628fb440bb1,Form,13,0,outro,NULL,nativeq,yes
1548107787,042a9025fc53a771a159d628fb440bb1,Form,13,0,outro,NULL,_REACTION_TIME_,9533
#
# Results on Monday January 21 2019 22:03:14 UTC.
# USER AGENT: Mozilla/5.0 (Windows NT 10.0; Win64; x64) AppleWebKit/537.36 (KHTML, like Gecko) Chrome/71.0.3578.98 Safari/537.36
# Design number was non-random = 121
#
# Columns below this comment are as follows:
# 1. Time results were received.
# 2. MD5 hash of participant's IP address.
# 3. Controller name.
# 4. Item number.
# 5. Element number.
# 6. Type.
# 7. Group.
# 8. Field name.
# 9. Field value.
1548108194,3af5feb19bb6f7fb090176b73884bee7,Form,0,0,intro,NULL,_REACTION_TIME_,11688
1548108194,3af5feb19bb6f7fb090176b73884bee7,Form,2,3,exhaust_high_nomodal,1,input1,yes
1548108194,3af5feb19bb6f7fb090176b73884bee7,Form,2,3,exhaust_high_nomodal,1,input2,no
1548108194,3af5feb19bb6f7fb090176b73884bee7,Form,2,3,exhaust_high_nomodal,1,_REACTION_TIME_,27020
1548108194,3af5feb19bb6f7fb090176b73884bee7,Form,2,4,exhaust_high_nomodal,1,q1,Alex
1548108194,3af5feb19bb6f7fb090176b73884bee7,Form,2,4,exhaust_high_nomodal,1,q2,green
1548108194,3af5feb19bb6f7fb090176b73884bee7,Form,2,4,exhaust_high_nomodal,1,_REACTION_TIME_,6137
1548108194,3af5feb19bb6f7fb090176b73884bee7,Form,13,0,outro,NULL,nativeq,yes
1548108194,3af5feb19bb6f7fb090176b73884bee7,Form,13,0,outro,NULL,_REACTION_TIME_,17051
#
# Results on Monday January 21 2019 22:05:07 UTC.
# USER AGENT: Mozilla/5.0 (X11; CrOS x86_64 11151.59.0) AppleWebKit/537.36 (KHTML, like Gecko) Chrome/71.0.3578.94 Safari/537.36
# Design number was non-random = 122
#
# Columns below this comment are as follows:
# 1. Time results were received.
# 2. MD5 hash of participant's IP address.
# 3. Controller name.
# 4. Item number.
# 5. Element number.
# 6. Type.
# 7. Group.
# 8. Field name.
# 9. Field value.
1548108308,1ab258a821d52246b1bc4ae61c5bcf80,Form,0,0,intro,NULL,_REACTION_TIME_,7067
1548108308,1ab258a821d52246b1bc4ae61c5bcf80,Form,3,3,both_high_nomodal,1,input1,no
1548108308,1ab258a821d52246b1bc4ae61c5bcf80,Form,3,3,both_high_nomodal,1,input2,yes
1548108308,1ab258a821d52246b1bc4ae61c5bcf80,Form,3,3,both_high_nomodal,1,_REACTION_TIME_,12257
1548108308,1ab258a821d52246b1bc4ae61c5bcf80,Form,3,4,both_high_nomodal,1,q1,Sam
1548108308,1ab258a821d52246b1bc4ae61c5bcf80,Form,3,4,both_high_nomodal,1,q2,green
1548108308,1ab258a821d52246b1bc4ae61c5bcf80,Form,3,4,both_high_nomodal,1,_REACTION_TIME_,5236
1548108308,1ab258a821d52246b1bc4ae61c5bcf80,Form,13,0,outro,NULL,nativeq,yes
1548108308,1ab258a821d52246b1bc4ae61c5bcf80,Form,13,0,outro,NULL,_REACTION_TIME_,4985
#
# Results on Monday January 21 2019 22:09:26 UTC.
# USER AGENT: Mozilla/5.0 (Windows NT 10.0; Win64; x64) AppleWebKit/537.36 (KHTML, like Gecko) Chrome/71.0.3578.98 Safari/537.36
# Design number was non-random = 123
#
# Columns below this comment are as follows:
# 1. Time results were received.
# 2. MD5 hash of participant's IP address.
# 3. Controller name.
# 4. Item number.
# 5. Element number.
# 6. Type.
# 7. Group.
# 8. Field name.
# 9. Field value.
1548108567,001a3b61d69fdf5fd74ca0b02b07dcc2,Form,0,0,intro,NULL,_REACTION_TIME_,9923
1548108567,001a3b61d69fdf5fd74ca0b02b07dcc2,Form,4,3,single_low_nomodal,1,input1,no
1548108567,001a3b61d69fdf5fd74ca0b02b07dcc2,Form,4,3,single_low_nomodal,1,input2,yes
1548108567,001a3b61d69fdf5fd74ca0b02b07dcc2,Form,4,3,single_low_nomodal,1,_REACTION_TIME_,33596
1548108567,001a3b61d69fdf5fd74ca0b02b07dcc2,Form,4,4,single_low_nomodal,1,q1,Alex
1548108567,001a3b61d69fdf5fd74ca0b02b07dcc2,Form,4,4,single_low_nomodal,1,q2,green
1548108567,001a3b61d69fdf5fd74ca0b02b07dcc2,Form,4,4,single_low_nomodal,1,_REACTION_TIME_,10023
1548108567,001a3b61d69fdf5fd74ca0b02b07dcc2,Form,13,0,outro,NULL,nativeq,yes
1548108567,001a3b61d69fdf5fd74ca0b02b07dcc2,Form,13,0,outro,NULL,_REACTION_TIME_,8493
#
# Results on Monday January 21 2019 22:20:17 UTC.
# USER AGENT: Mozilla/5.0 (Windows NT 10.0; Win64; x64) AppleWebKit/537.36 (KHTML, like Gecko) Chrome/71.0.3578.98 Safari/537.36
# Design number was non-random = 124
#
# Columns below this comment are as follows:
# 1. Time results were received.
# 2. MD5 hash of participant's IP address.
# 3. Controller name.
# 4. Item number.
# 5. Element number.
# 6. Type.
# 7. Group.
# 8. Field name.
# 9. Field value.
1548109217,aa6cfb4f0b4d108066f579710e21824f,Form,0,0,intro,NULL,_REACTION_TIME_,803
1548109217,aa6cfb4f0b4d108066f579710e21824f,Form,5,3,exhaust_low_nomodal,1,input1,no
1548109217,aa6cfb4f0b4d108066f579710e21824f,Form,5,3,exhaust_low_nomodal,1,input2,yes
1548109217,aa6cfb4f0b4d108066f579710e21824f,Form,5,3,exhaust_low_nomodal,1,_REACTION_TIME_,11877
1548109217,aa6cfb4f0b4d108066f579710e21824f,Form,5,4,exhaust_low_nomodal,1,q1,Alex
1548109217,aa6cfb4f0b4d108066f579710e21824f,Form,5,4,exhaust_low_nomodal,1,q2,green
1548109217,aa6cfb4f0b4d108066f579710e21824f,Form,5,4,exhaust_low_nomodal,1,_REACTION_TIME_,3863
1548109217,aa6cfb4f0b4d108066f579710e21824f,Form,13,0,outro,NULL,nativeq,yes
1548109217,aa6cfb4f0b4d108066f579710e21824f,Form,13,0,outro,NULL,_REACTION_TIME_,4965
#
# Results on Monday January 21 2019 22:29:29 UTC.
# USER AGENT: Mozilla/5.0 (Windows NT 10.0; Win64; x64) AppleWebKit/537.36 (KHTML, like Gecko) Chrome/71.0.3578.98 Safari/537.36
# Design number was non-random = 125
#
# Columns below this comment are as follows:
# 1. Time results were received.
# 2. MD5 hash of participant's IP address.
# 3. Controller name.
# 4. Item number.
# 5. Element number.
# 6. Type.
# 7. Group.
# 8. Field name.
# 9. Field value.
1548109770,2bcd77cf6d3b545f57b853c8d24d329f,Form,0,0,intro,NULL,_REACTION_TIME_,1289
1548109770,2bcd77cf6d3b545f57b853c8d24d329f,Form,6,3,both_low_nomodal,1,input1,yes
1548109770,2bcd77cf6d3b545f57b853c8d24d329f,Form,6,3,both_low_nomodal,1,input2,yes
1548109770,2bcd77cf6d3b545f57b853c8d24d329f,Form,6,3,both_low_nomodal,1,_REACTION_TIME_,6551
1548109770,2bcd77cf6d3b545f57b853c8d24d329f,Form,6,4,both_low_nomodal,1,q1,Alex
1548109770,2bcd77cf6d3b545f57b853c8d24d329f,Form,6,4,both_low_nomodal,1,q2,green
1548109770,2bcd77cf6d3b545f57b853c8d24d329f,Form,6,4,both_low_nomodal,1,_REACTION_TIME_,11768
1548109770,2bcd77cf6d3b545f57b853c8d24d329f,Form,13,0,outro,NULL,nativeq,yes
1548109770,2bcd77cf6d3b545f57b853c8d24d329f,Form,13,0,outro,NULL,_REACTION_TIME_,3590
#
# Results on Monday January 21 2019 22:30:18 UTC.
# USER AGENT: Mozilla/5.0 (Windows NT 10.0; Win64; x64) AppleWebKit/537.36 (KHTML, like Gecko) Chrome/71.0.3578.98 Safari/537.36
# Design number was non-random = 126
#
# Columns below this comment are as follows:
# 1. Time results were received.
# 2. MD5 hash of participant's IP address.
# 3. Controller name.
# 4. Item number.
# 5. Element number.
# 6. Type.
# 7. Group.
# 8. Field name.
# 9. Field value.
1548109818,2bcd77cf6d3b545f57b853c8d24d329f,Form,0,0,intro,NULL,_REACTION_TIME_,1161
1548109818,2bcd77cf6d3b545f57b853c8d24d329f,Form,7,3,single_high_modal,1,input1,yes
1548109818,2bcd77cf6d3b545f57b853c8d24d329f,Form,7,3,single_high_modal,1,input2,yes
1548109818,2bcd77cf6d3b545f57b853c8d24d329f,Form,7,3,single_high_modal,1,_REACTION_TIME_,14213
1548109818,2bcd77cf6d3b545f57b853c8d24d329f,Form,7,4,single_high_modal,1,q1,Alex
1548109818,2bcd77cf6d3b545f57b853c8d24d329f,Form,7,4,single_high_modal,1,q2,green
1548109818,2bcd77cf6d3b545f57b853c8d24d329f,Form,7,4,single_high_modal,1,_REACTION_TIME_,3578
1548109818,2bcd77cf6d3b545f57b853c8d24d329f,Form,13,0,outro,NULL,nativeq,yes
1548109818,2bcd77cf6d3b545f57b853c8d24d329f,Form,13,0,outro,NULL,_REACTION_TIME_,4148
#
# Results on Monday January 21 2019 22:40:45 UTC.
# USER AGENT: Mozilla/5.0 (Linux; Android 7.0; VS988 Build/NRD90U) AppleWebKit/537.36 (KHTML, like Gecko) Chrome/66.0.3359.158 Mobile Safari/537.36
# Design number was non-random = 127
#
# Columns below this comment are as follows:
# 1. Time results were received.
# 2. MD5 hash of participant's IP address.
# 3. Controller name.
# 4. Item number.
# 5. Element number.
# 6. Type.
# 7. Group.
# 8. Field name.
# 9. Field value.
1548110446,e063b49592acb318ac02d2e592fce5f6,Form,0,0,intro,NULL,_REACTION_TIME_,16053
1548110446,e063b49592acb318ac02d2e592fce5f6,Form,8,3,exhaust_high_modal,1,input1,yes
1548110446,e063b49592acb318ac02d2e592fce5f6,Form,8,3,exhaust_high_modal,1,input2,no
1548110446,e063b49592acb318ac02d2e592fce5f6,Form,8,3,exhaust_high_modal,1,_REACTION_TIME_,9741
1548110446,e063b49592acb318ac02d2e592fce5f6,Form,8,4,exhaust_high_modal,1,q1,Alex
1548110446,e063b49592acb318ac02d2e592fce5f6,Form,8,4,exhaust_high_modal,1,q2,green
1548110446,e063b49592acb318ac02d2e592fce5f6,Form,8,4,exhaust_high_modal,1,_REACTION_TIME_,5386
1548110446,e063b49592acb318ac02d2e592fce5f6,Form,13,0,outro,NULL,nativeq,yes
1548110446,e063b49592acb318ac02d2e592fce5f6,Form,13,0,outro,NULL,_REACTION_TIME_,15496
#
# Results on Monday January 21 2019 22:47:30 UTC.
# USER AGENT: Mozilla/5.0 (Windows NT 10.0; Win64; x64; rv:64.0) Gecko/20100101 Firefox/64.0
# Design number was non-random = 128
#
# Columns below this comment are as follows:
# 1. Time results were received.
# 2. MD5 hash of participant's IP address.
# 3. Controller name.
# 4. Item number.
# 5. Element number.
# 6. Type.
# 7. Group.
# 8. Field name.
# 9. Field value.
1548110850,c5078a141b14bd43c79ab9934a5fb18d,Form,0,0,intro,NULL,_REACTION_TIME_,4206
1548110850,c5078a141b14bd43c79ab9934a5fb18d,Form,9,3,both_high_modal,1,input1,yes
1548110850,c5078a141b14bd43c79ab9934a5fb18d,Form,9,3,both_high_modal,1,input2,yes
1548110850,c5078a141b14bd43c79ab9934a5fb18d,Form,9,3,both_high_modal,1,_REACTION_TIME_,13742
1548110850,c5078a141b14bd43c79ab9934a5fb18d,Form,9,4,both_high_modal,1,q1,Alex
1548110850,c5078a141b14bd43c79ab9934a5fb18d,Form,9,4,both_high_modal,1,q2,green
1548110850,c5078a141b14bd43c79ab9934a5fb18d,Form,9,4,both_high_modal,1,_REACTION_TIME_,4429
1548110850,c5078a141b14bd43c79ab9934a5fb18d,Form,13,0,outro,NULL,_REACTION_TIME_,88
#
# Results on Monday January 21 2019 23:05:34 UTC.
# USER AGENT: Mozilla/5.0 (X11; Ubuntu; Linux x86_64; rv:64.0) Gecko/20100101 Firefox/64.0
# Design number was non-random = 129
#
# Columns below this comment are as follows:
# 1. Time results were received.
# 2. MD5 hash of participant's IP address.
# 3. Controller name.
# 4. Item number.
# 5. Element number.
# 6. Type.
# 7. Group.
# 8. Field name.
# 9. Field value.
1548111935,bb1646a58b4e868d07873cf6fcec5b96,Form,0,0,intro,NULL,_REACTION_TIME_,2374
1548111935,bb1646a58b4e868d07873cf6fcec5b96,Form,10,3,single_low_modal,1,input1,no
1548111935,bb1646a58b4e868d07873cf6fcec5b96,Form,10,3,single_low_modal,1,input2,yes
1548111935,bb1646a58b4e868d07873cf6fcec5b96,Form,10,3,single_low_modal,1,_REACTION_TIME_,9811
1548111935,bb1646a58b4e868d07873cf6fcec5b96,Form,10,4,single_low_modal,1,q1,Alex
1548111935,bb1646a58b4e868d07873cf6fcec5b96,Form,10,4,single_low_modal,1,q2,green
1548111935,bb1646a58b4e868d07873cf6fcec5b96,Form,10,4,single_low_modal,1,_REACTION_TIME_,5482
1548111935,bb1646a58b4e868d07873cf6fcec5b96,Form,13,0,outro,NULL,nativeq,yes
1548111935,bb1646a58b4e868d07873cf6fcec5b96,Form,13,0,outro,NULL,_REACTION_TIME_,4821
#
# Results on Monday January 21 2019 23:05:49 UTC.
# USER AGENT: Mozilla/5.0 (iPad; CPU OS 9_3_5 like Mac OS X) AppleWebKit/601.1.46 (KHTML, like Gecko) Version/9.0 Mobile/13G36 Safari/601.1
# Design number was non-random = 129
#
# Columns below this comment are as follows:
# 1. Time results were received.
# 2. MD5 hash of participant's IP address.
# 3. Controller name.
# 4. Item number.
# 5. Element number.
# 6. Type.
# 7. Group.
# 8. Field name.
# 9. Field value.
1548111949,d63690f313f564759a2dbcb639a4d66c,Form,0,0,intro,NULL,_REACTION_TIME_,50540
1548111949,d63690f313f564759a2dbcb639a4d66c,Form,10,3,single_low_modal,1,input1,no
1548111949,d63690f313f564759a2dbcb639a4d66c,Form,10,3,single_low_modal,1,input2,yes
1548111949,d63690f313f564759a2dbcb639a4d66c,Form,10,3,single_low_modal,1,_REACTION_TIME_,24421
1548111949,d63690f313f564759a2dbcb639a4d66c,Form,10,4,single_low_modal,1,q1,Alex
1548111949,d63690f313f564759a2dbcb639a4d66c,Form,10,4,single_low_modal,1,q2,green
1548111949,d63690f313f564759a2dbcb639a4d66c,Form,10,4,single_low_modal,1,_REACTION_TIME_,34716
1548111949,d63690f313f564759a2dbcb639a4d66c,Form,13,0,outro,NULL,nativeq,yes
1548111949,d63690f313f564759a2dbcb639a4d66c,Form,13,0,outro,NULL,_REACTION_TIME_,30610
#
# Results on Monday January 21 2019 23:07:42 UTC.
# USER AGENT: Mozilla/5.0 (Windows NT 6.3; Win64; x64) AppleWebKit/537.36 (KHTML, like Gecko) Chrome/71.0.3578.98 Safari/537.36
# Design number was non-random = 131
#
# Columns below this comment are as follows:
# 1. Time results were received.
# 2. MD5 hash of participant's IP address.
# 3. Controller name.
# 4. Item number.
# 5. Element number.
# 6. Type.
# 7. Group.
# 8. Field name.
# 9. Field value.
1548112062,285edd599f828ab1fd1812038f9dadd6,Form,0,0,intro,NULL,_REACTION_TIME_,7675
1548112062,285edd599f828ab1fd1812038f9dadd6,Form,12,3,both_low_modal,1,input1,yes
1548112062,285edd599f828ab1fd1812038f9dadd6,Form,12,3,both_low_modal,1,input2,yes
1548112062,285edd599f828ab1fd1812038f9dadd6,Form,12,3,both_low_modal,1,_REACTION_TIME_,13788
1548112062,285edd599f828ab1fd1812038f9dadd6,Form,12,4,both_low_modal,1,q1,Alex
1548112062,285edd599f828ab1fd1812038f9dadd6,Form,12,4,both_low_modal,1,q2,green
1548112062,285edd599f828ab1fd1812038f9dadd6,Form,12,4,both_low_modal,1,_REACTION_TIME_,4633
1548112062,285edd599f828ab1fd1812038f9dadd6,Form,13,0,outro,NULL,nativeq,yes
1548112062,285edd599f828ab1fd1812038f9dadd6,Form,13,0,outro,NULL,_REACTION_TIME_,22613
#
# Results on Monday January 21 2019 23:23:58 UTC.
# USER AGENT: Mozilla/5.0 (Windows NT 6.1; Win64; x64) AppleWebKit/537.36 (KHTML, like Gecko) Chrome/71.0.3578.98 Safari/537.36
# Design number was non-random = 132
#
# Columns below this comment are as follows:
# 1. Time results were received.
# 2. MD5 hash of participant's IP address.
# 3. Controller name.
# 4. Item number.
# 5. Element number.
# 6. Type.
# 7. Group.
# 8. Field name.
# 9. Field value.
1548113038,d186f7d7e3d834303eb18d3eac9fa605,Form,0,0,intro,NULL,_REACTION_TIME_,2603
1548113038,d186f7d7e3d834303eb18d3eac9fa605,Form,1,3,single_high_nomodal,1,input1,yes
1548113038,d186f7d7e3d834303eb18d3eac9fa605,Form,1,3,single_high_nomodal,1,input2,no
1548113038,d186f7d7e3d834303eb18d3eac9fa605,Form,1,3,single_high_nomodal,1,_REACTION_TIME_,33127
1548113038,d186f7d7e3d834303eb18d3eac9fa605,Form,1,4,single_high_nomodal,1,q1,Alex
1548113038,d186f7d7e3d834303eb18d3eac9fa605,Form,1,4,single_high_nomodal,1,q2,green
1548113038,d186f7d7e3d834303eb18d3eac9fa605,Form,1,4,single_high_nomodal,1,_REACTION_TIME_,8543
1548113038,d186f7d7e3d834303eb18d3eac9fa605,Form,13,0,outro,NULL,nativeq,yes
1548113038,d186f7d7e3d834303eb18d3eac9fa605,Form,13,0,outro,NULL,_REACTION_TIME_,8667
#
# Results on Monday January 21 2019 23:36:48 UTC.
# USER AGENT: Mozilla/5.0 (Macintosh; Intel Mac OS X 10_11_6) AppleWebKit/605.1.15 (KHTML, like Gecko) Version/11.1.2 Safari/605.1.15
# Design number was non-random = 133
#
# Columns below this comment are as follows:
# 1. Time results were received.
# 2. MD5 hash of participant's IP address.
# 3. Controller name.
# 4. Item number.
# 5. Element number.
# 6. Type.
# 7. Group.
# 8. Field name.
# 9. Field value.
1548113809,3a004b0285d3bb5d47a614493b1a9dd9,Form,0,0,intro,NULL,_REACTION_TIME_,17984
1548113809,3a004b0285d3bb5d47a614493b1a9dd9,Form,2,3,exhaust_high_nomodal,1,input1,yes
1548113809,3a004b0285d3bb5d47a614493b1a9dd9,Form,2,3,exhaust_high_nomodal,1,input2,no
1548113809,3a004b0285d3bb5d47a614493b1a9dd9,Form,2,3,exhaust_high_nomodal,1,_REACTION_TIME_,17600
1548113809,3a004b0285d3bb5d47a614493b1a9dd9,Form,2,4,exhaust_high_nomodal,1,q1,Alex
1548113809,3a004b0285d3bb5d47a614493b1a9dd9,Form,2,4,exhaust_high_nomodal,1,q2,green
1548113809,3a004b0285d3bb5d47a614493b1a9dd9,Form,2,4,exhaust_high_nomodal,1,_REACTION_TIME_,6526
1548113809,3a004b0285d3bb5d47a614493b1a9dd9,Form,13,0,outro,NULL,nativeq,yes
1548113809,3a004b0285d3bb5d47a614493b1a9dd9,Form,13,0,outro,NULL,_REACTION_TIME_,18342
#
# Results on Monday January 21 2019 23:44:54 UTC.
# USER AGENT: Mozilla/5.0 (Windows NT 6.3; Win64; x64) AppleWebKit/537.36 (KHTML, like Gecko) Chrome/71.0.3578.98 Safari/537.36
# Design number was non-random = 134
#
# Columns below this comment are as follows:
# 1. Time results were received.
# 2. MD5 hash of participant's IP address.
# 3. Controller name.
# 4. Item number.
# 5. Element number.
# 6. Type.
# 7. Group.
# 8. Field name.
# 9. Field value.
1548114294,d8697cf6054784aca5af250bd59a0c50,Form,0,0,intro,NULL,_REACTION_TIME_,17816
1548114294,d8697cf6054784aca5af250bd59a0c50,Form,3,3,both_high_nomodal,1,input1,yes
1548114294,d8697cf6054784aca5af250bd59a0c50,Form,3,3,both_high_nomodal,1,input2,yes
1548114294,d8697cf6054784aca5af250bd59a0c50,Form,3,3,both_high_nomodal,1,_REACTION_TIME_,19137
1548114294,d8697cf6054784aca5af250bd59a0c50,Form,3,4,both_high_nomodal,1,q1,Alex
1548114294,d8697cf6054784aca5af250bd59a0c50,Form,3,4,both_high_nomodal,1,q2,green
1548114294,d8697cf6054784aca5af250bd59a0c50,Form,3,4,both_high_nomodal,1,_REACTION_TIME_,6947
1548114294,d8697cf6054784aca5af250bd59a0c50,Form,13,0,outro,NULL,nativeq,yes
1548114294,d8697cf6054784aca5af250bd59a0c50,Form,13,0,outro,NULL,_REACTION_TIME_,15684
#
# Results on Monday January 21 2019 23:48:33 UTC.
# USER AGENT: Mozilla/5.0 (Windows NT 10.0; Win64; x64) AppleWebKit/537.36 (KHTML, like Gecko) Chrome/71.0.3578.98 Safari/537.36
# Design number was non-random = 135
#
# Columns below this comment are as follows:
# 1. Time results were received.
# 2. MD5 hash of participant's IP address.
# 3. Controller name.
# 4. Item number.
# 5. Element number.
# 6. Type.
# 7. Group.
# 8. Field name.
# 9. Field value.
1548114514,4f3bc900217cf4e20cace5c275c5fc4a,Form,0,0,intro,NULL,_REACTION_TIME_,3408
1548114514,4f3bc900217cf4e20cace5c275c5fc4a,Form,4,3,single_low_nomodal,1,input1,no
1548114514,4f3bc900217cf4e20cace5c275c5fc4a,Form,4,3,single_low_nomodal,1,input2,yes
1548114514,4f3bc900217cf4e20cace5c275c5fc4a,Form,4,3,single_low_nomodal,1,_REACTION_TIME_,14001
1548114514,4f3bc900217cf4e20cace5c275c5fc4a,Form,4,4,single_low_nomodal,1,q1,Alex
1548114514,4f3bc900217cf4e20cace5c275c5fc4a,Form,4,4,single_low_nomodal,1,q2,green
1548114514,4f3bc900217cf4e20cace5c275c5fc4a,Form,4,4,single_low_nomodal,1,_REACTION_TIME_,4604
1548114514,4f3bc900217cf4e20cace5c275c5fc4a,Form,13,0,outro,NULL,nativeq,yes
1548114514,4f3bc900217cf4e20cace5c275c5fc4a,Form,13,0,outro,NULL,_REACTION_TIME_,8036
#
# Results on Monday January 21 2019 23:56:53 UTC.
# USER AGENT: Mozilla/5.0 (Windows NT 6.3; Win64; x64; rv:64.0) Gecko/20100101 Firefox/64.0
# Design number was non-random = 136
#
# Columns below this comment are as follows:
# 1. Time results were received.
# 2. MD5 hash of participant's IP address.
# 3. Controller name.
# 4. Item number.
# 5. Element number.
# 6. Type.
# 7. Group.
# 8. Field name.
# 9. Field value.
1548115013,1eadcbbd7486fe04ae842b9ef07d30dd,Form,0,0,intro,NULL,_REACTION_TIME_,14908
1548115013,1eadcbbd7486fe04ae842b9ef07d30dd,Form,5,3,exhaust_low_nomodal,1,input1,no
1548115013,1eadcbbd7486fe04ae842b9ef07d30dd,Form,5,3,exhaust_low_nomodal,1,input2,yes
1548115013,1eadcbbd7486fe04ae842b9ef07d30dd,Form,5,3,exhaust_low_nomodal,1,_REACTION_TIME_,25059
1548115013,1eadcbbd7486fe04ae842b9ef07d30dd,Form,5,4,exhaust_low_nomodal,1,q1,Sam
1548115013,1eadcbbd7486fe04ae842b9ef07d30dd,Form,5,4,exhaust_low_nomodal,1,q2,tan
1548115013,1eadcbbd7486fe04ae842b9ef07d30dd,Form,5,4,exhaust_low_nomodal,1,_REACTION_TIME_,6456
1548115013,1eadcbbd7486fe04ae842b9ef07d30dd,Form,13,0,outro,NULL,nativeq,yes
1548115013,1eadcbbd7486fe04ae842b9ef07d30dd,Form,13,0,outro,NULL,_REACTION_TIME_,13229
#
# Results on Tuesday January 22 2019 00:05:11 UTC.
# USER AGENT: Mozilla/5.0 (Windows NT 10.0; Win64; x64) AppleWebKit/537.36 (KHTML, like Gecko) Chrome/71.0.3578.98 Safari/537.36
# Design number was non-random = 137
#
# Columns below this comment are as follows:
# 1. Time results were received.
# 2. MD5 hash of participant's IP address.
# 3. Controller name.
# 4. Item number.
# 5. Element number.
# 6. Type.
# 7. Group.
# 8. Field name.
# 9. Field value.
1548115511,d1cbd0e0b439e59781e8189ffa3aeec0,Form,0,0,intro,NULL,_REACTION_TIME_,15221
1548115511,d1cbd0e0b439e59781e8189ffa3aeec0,Form,6,3,both_low_nomodal,1,input1,yes
1548115511,d1cbd0e0b439e59781e8189ffa3aeec0,Form,6,3,both_low_nomodal,1,input2,yes
1548115511,d1cbd0e0b439e59781e8189ffa3aeec0,Form,6,3,both_low_nomodal,1,_REACTION_TIME_,21413
1548115511,d1cbd0e0b439e59781e8189ffa3aeec0,Form,6,4,both_low_nomodal,1,q1,Alex
1548115511,d1cbd0e0b439e59781e8189ffa3aeec0,Form,6,4,both_low_nomodal,1,q2,tan
1548115511,d1cbd0e0b439e59781e8189ffa3aeec0,Form,6,4,both_low_nomodal,1,_REACTION_TIME_,20298
1548115511,d1cbd0e0b439e59781e8189ffa3aeec0,Form,13,0,outro,NULL,nativeq,yes
1548115511,d1cbd0e0b439e59781e8189ffa3aeec0,Form,13,0,outro,NULL,_REACTION_TIME_,29912
#
# Results on Tuesday January 22 2019 00:35:54 UTC.
# USER AGENT: Mozilla/5.0 (Windows NT 6.1; Win64; x64; rv:64.0) Gecko/20100101 Firefox/64.0
# Design number was non-random = 138
#
# Columns below this comment are as follows:
# 1. Time results were received.
# 2. MD5 hash of participant's IP address.
# 3. Controller name.
# 4. Item number.
# 5. Element number.
# 6. Type.
# 7. Group.
# 8. Field name.
# 9. Field value.
1548117355,c39788c90129a34e7755e02079e4b747,Form,0,0,intro,NULL,_REACTION_TIME_,6265
1548117355,c39788c90129a34e7755e02079e4b747,Form,7,3,single_high_modal,1,input1,yes
1548117355,c39788c90129a34e7755e02079e4b747,Form,7,3,single_high_modal,1,input2,no
1548117355,c39788c90129a34e7755e02079e4b747,Form,7,3,single_high_modal,1,_REACTION_TIME_,10856
1548117355,c39788c90129a34e7755e02079e4b747,Form,7,4,single_high_modal,1,q1,Alex
1548117355,c39788c90129a34e7755e02079e4b747,Form,7,4,single_high_modal,1,q2,green
1548117355,c39788c90129a34e7755e02079e4b747,Form,7,4,single_high_modal,1,_REACTION_TIME_,6217
1548117355,c39788c90129a34e7755e02079e4b747,Form,13,0,outro,NULL,nativeq,yes
1548117355,c39788c90129a34e7755e02079e4b747,Form,13,0,outro,NULL,_REACTION_TIME_,4384
#
# Results on Tuesday January 22 2019 00:49:58 UTC.
# USER AGENT: Mozilla/5.0 (X11; CrOS x86_64 11151.113.0) AppleWebKit/537.36 (KHTML, like Gecko) Chrome/71.0.3578.127 Safari/537.36
# Design number was non-random = 139
#
# Columns below this comment are as follows:
# 1. Time results were received.
# 2. MD5 hash of participant's IP address.
# 3. Controller name.
# 4. Item number.
# 5. Element number.
# 6. Type.
# 7. Group.
# 8. Field name.
# 9. Field value.
1548118198,903bde59c109524e24bb4717cf9e92d7,Form,0,0,intro,NULL,_REACTION_TIME_,25892
1548118198,903bde59c109524e24bb4717cf9e92d7,Form,8,3,exhaust_high_modal,1,input1,yes
1548118198,903bde59c109524e24bb4717cf9e92d7,Form,8,3,exhaust_high_modal,1,input2,no
1548118198,903bde59c109524e24bb4717cf9e92d7,Form,8,3,exhaust_high_modal,1,_REACTION_TIME_,20279
1548118198,903bde59c109524e24bb4717cf9e92d7,Form,8,4,exhaust_high_modal,1,q1,Alex
1548118198,903bde59c109524e24bb4717cf9e92d7,Form,8,4,exhaust_high_modal,1,q2,green
1548118198,903bde59c109524e24bb4717cf9e92d7,Form,8,4,exhaust_high_modal,1,_REACTION_TIME_,6893
1548118198,903bde59c109524e24bb4717cf9e92d7,Form,13,0,outro,NULL,nativeq,yes
1548118198,903bde59c109524e24bb4717cf9e92d7,Form,13,0,outro,NULL,_REACTION_TIME_,11144
#
# Results on Tuesday January 22 2019 00:52:22 UTC.
# USER AGENT: Mozilla/5.0 (Windows NT 10.0; Win64; x64) AppleWebKit/537.36 (KHTML, like Gecko) Chrome/71.0.3578.98 Safari/537.36
# Design number was non-random = 140
#
# Columns below this comment are as follows:
# 1. Time results were received.
# 2. MD5 hash of participant's IP address.
# 3. Controller name.
# 4. Item number.
# 5. Element number.
# 6. Type.
# 7. Group.
# 8. Field name.
# 9. Field value.
1548118343,6d184b43d7c1600748054b6be7d5a4cc,Form,0,0,intro,NULL,_REACTION_TIME_,9461
1548118343,6d184b43d7c1600748054b6be7d5a4cc,Form,9,3,both_high_modal,1,input1,yes
1548118343,6d184b43d7c1600748054b6be7d5a4cc,Form,9,3,both_high_modal,1,input2,yes
1548118343,6d184b43d7c1600748054b6be7d5a4cc,Form,9,3,both_high_modal,1,_REACTION_TIME_,11718
1548118343,6d184b43d7c1600748054b6be7d5a4cc,Form,9,4,both_high_modal,1,q1,Alex
1548118343,6d184b43d7c1600748054b6be7d5a4cc,Form,9,4,both_high_modal,1,q2,green
1548118343,6d184b43d7c1600748054b6be7d5a4cc,Form,9,4,both_high_modal,1,_REACTION_TIME_,7085
1548118343,6d184b43d7c1600748054b6be7d5a4cc,Form,13,0,outro,NULL,nativeq,yes
1548118343,6d184b43d7c1600748054b6be7d5a4cc,Form,13,0,outro,NULL,_REACTION_TIME_,9860
#
# Results on Tuesday January 22 2019 00:53:28 UTC.
# USER AGENT: Mozilla/5.0 (iPad; CPU OS 12_1 like Mac OS X) AppleWebKit/605.1.15 (KHTML, like Gecko) Version/12.0 Mobile/15E148 Safari/604.1
# Design number was non-random = 140
#
# Columns below this comment are as follows:
# 1. Time results were received.
# 2. MD5 hash of participant's IP address.
# 3. Controller name.
# 4. Item number.
# 5. Element number.
# 6. Type.
# 7. Group.
# 8. Field name.
# 9. Field value.
1548118408,a37ba08a6ff6395310a038f98e320694,Form,0,0,intro,NULL,_REACTION_TIME_,18441
1548118408,a37ba08a6ff6395310a038f98e320694,Form,9,3,both_high_modal,1,input1,yes
1548118408,a37ba08a6ff6395310a038f98e320694,Form,9,3,both_high_modal,1,input2,yes
1548118408,a37ba08a6ff6395310a038f98e320694,Form,9,3,both_high_modal,1,_REACTION_TIME_,13387
1548118408,a37ba08a6ff6395310a038f98e320694,Form,9,4,both_high_modal,1,q1,Alex
1548118408,a37ba08a6ff6395310a038f98e320694,Form,9,4,both_high_modal,1,q2,green
1548118408,a37ba08a6ff6395310a038f98e320694,Form,9,4,both_high_modal,1,_REACTION_TIME_,9065
1548118408,a37ba08a6ff6395310a038f98e320694,Form,13,0,outro,NULL,nativeq,yes
1548118408,a37ba08a6ff6395310a038f98e320694,Form,13,0,outro,NULL,_REACTION_TIME_,22129
#
# Results on Tuesday January 22 2019 01:34:18 UTC.
# USER AGENT: Mozilla/5.0 (Windows NT 10.0; Win64; x64) AppleWebKit/537.36 (KHTML, like Gecko) Chrome/71.0.3578.98 Safari/537.36
# Design number was non-random = 142
#
# Columns below this comment are as follows:
# 1. Time results were received.
# 2. MD5 hash of participant's IP address.
# 3. Controller name.
# 4. Item number.
# 5. Element number.
# 6. Type.
# 7. Group.
# 8. Field name.
# 9. Field value.
1548120859,69289571298d4737edbefd28a33fc26f,Form,0,0,intro,NULL,_REACTION_TIME_,10114
1548120859,69289571298d4737edbefd28a33fc26f,Form,11,3,exhaust_low_modal,1,input1,no
1548120859,69289571298d4737edbefd28a33fc26f,Form,11,3,exhaust_low_modal,1,input2,yes
1548120859,69289571298d4737edbefd28a33fc26f,Form,11,3,exhaust_low_modal,1,_REACTION_TIME_,7465
1548120859,69289571298d4737edbefd28a33fc26f,Form,11,4,exhaust_low_modal,1,q1,Alex
1548120859,69289571298d4737edbefd28a33fc26f,Form,11,4,exhaust_low_modal,1,q2,green
1548120859,69289571298d4737edbefd28a33fc26f,Form,11,4,exhaust_low_modal,1,_REACTION_TIME_,4984
1548120859,69289571298d4737edbefd28a33fc26f,Form,13,0,outro,NULL,nativeq,yes
1548120859,69289571298d4737edbefd28a33fc26f,Form,13,0,outro,NULL,_REACTION_TIME_,11391
#
# Results on Tuesday January 22 2019 02:36:40 UTC.
# USER AGENT: Mozilla/5.0 (Windows NT 6.1; Win64; x64) AppleWebKit/537.36 (KHTML, like Gecko) Chrome/71.0.3578.98 Safari/537.36
# Design number was non-random = 143
#
# Columns below this comment are as follows:
# 1. Time results were received.
# 2. MD5 hash of participant's IP address.
# 3. Controller name.
# 4. Item number.
# 5. Element number.
# 6. Type.
# 7. Group.
# 8. Field name.
# 9. Field value.
1548124601,331cb3cf28a418ab5e70d3476a0dc12f,Form,0,0,intro,NULL,_REACTION_TIME_,8083
1548124601,331cb3cf28a418ab5e70d3476a0dc12f,Form,12,3,both_low_modal,1,input1,yes
1548124601,331cb3cf28a418ab5e70d3476a0dc12f,Form,12,3,both_low_modal,1,input2,yes
1548124601,331cb3cf28a418ab5e70d3476a0dc12f,Form,12,3,both_low_modal,1,_REACTION_TIME_,9476
1548124601,331cb3cf28a418ab5e70d3476a0dc12f,Form,12,4,both_low_modal,1,q1,Alex
1548124601,331cb3cf28a418ab5e70d3476a0dc12f,Form,12,4,both_low_modal,1,q2,green
1548124601,331cb3cf28a418ab5e70d3476a0dc12f,Form,12,4,both_low_modal,1,_REACTION_TIME_,9733
1548124601,331cb3cf28a418ab5e70d3476a0dc12f,Form,13,0,outro,NULL,nativeq,yes
1548124601,331cb3cf28a418ab5e70d3476a0dc12f,Form,13,0,outro,NULL,_REACTION_TIME_,7283
#
# Results on Tuesday January 22 2019 02:47:40 UTC.
# USER AGENT: Mozilla/5.0 (Windows NT 6.1; WOW64; Trident/7.0; rv:11.0) like Gecko
# Design number was non-random = 144
#
# Columns below this comment are as follows:
# 1. Time results were received.
# 2. MD5 hash of participant's IP address.
# 3. Controller name.
# 4. Item number.
# 5. Element number.
# 6. Type.
# 7. Group.
# 8. Field name.
# 9. Field value.
1548125260,a6d96c6e842b36c7ec09021804f874e9,Form,0,0,intro,NULL,_REACTION_TIME_,1309
1548125260,a6d96c6e842b36c7ec09021804f874e9,Form,1,3,single_high_nomodal,1,input1,yes
1548125260,a6d96c6e842b36c7ec09021804f874e9,Form,1,3,single_high_nomodal,1,input2,no
1548125260,a6d96c6e842b36c7ec09021804f874e9,Form,1,3,single_high_nomodal,1,_REACTION_TIME_,21804
1548125260,a6d96c6e842b36c7ec09021804f874e9,Form,1,4,single_high_nomodal,1,q1,Alex
1548125260,a6d96c6e842b36c7ec09021804f874e9,Form,1,4,single_high_nomodal,1,q2,green
1548125260,a6d96c6e842b36c7ec09021804f874e9,Form,1,4,single_high_nomodal,1,_REACTION_TIME_,6596
1548125260,a6d96c6e842b36c7ec09021804f874e9,Form,13,0,outro,NULL,nativeq,yes
1548125260,a6d96c6e842b36c7ec09021804f874e9,Form,13,0,outro,NULL,_REACTION_TIME_,8698
#
# Results on Tuesday January 22 2019 02:48:41 UTC.
# USER AGENT: Mozilla/5.0 (Windows NT 6.1; WOW64; Trident/7.0; rv:11.0) like Gecko
# Design number was non-random = 145
#
# Columns below this comment are as follows:
# 1. Time results were received.
# 2. MD5 hash of participant's IP address.
# 3. Controller name.
# 4. Item number.
# 5. Element number.
# 6. Type.
# 7. Group.
# 8. Field name.
# 9. Field value.
1548125322,a6d96c6e842b36c7ec09021804f874e9,Form,0,0,intro,NULL,_REACTION_TIME_,2653
1548125322,a6d96c6e842b36c7ec09021804f874e9,Form,2,3,exhaust_high_nomodal,1,input1,yes
1548125322,a6d96c6e842b36c7ec09021804f874e9,Form,2,3,exhaust_high_nomodal,1,input2,no
1548125322,a6d96c6e842b36c7ec09021804f874e9,Form,2,3,exhaust_high_nomodal,1,_REACTION_TIME_,12162
1548125322,a6d96c6e842b36c7ec09021804f874e9,Form,2,4,exhaust_high_nomodal,1,q1,Alex
1548125322,a6d96c6e842b36c7ec09021804f874e9,Form,2,4,exhaust_high_nomodal,1,q2,tan
1548125322,a6d96c6e842b36c7ec09021804f874e9,Form,2,4,exhaust_high_nomodal,1,_REACTION_TIME_,6621
1548125322,a6d96c6e842b36c7ec09021804f874e9,Form,13,0,outro,NULL,nativeq,yes
1548125322,a6d96c6e842b36c7ec09021804f874e9,Form,13,0,outro,NULL,_REACTION_TIME_,6372
#
# Results on Tuesday January 22 2019 02:50:05 UTC.
# USER AGENT: Mozilla/5.0 (Windows NT 6.1; WOW64; Trident/7.0; rv:11.0) like Gecko
# Design number was non-random = 146
#
# Columns below this comment are as follows:
# 1. Time results were received.
# 2. MD5 hash of participant's IP address.
# 3. Controller name.
# 4. Item number.
# 5. Element number.
# 6. Type.
# 7. Group.
# 8. Field name.
# 9. Field value.
1548125405,a6d96c6e842b36c7ec09021804f874e9,Form,0,0,intro,NULL,_REACTION_TIME_,14621
1548125405,a6d96c6e842b36c7ec09021804f874e9,Form,3,3,both_high_nomodal,1,input1,yes
1548125405,a6d96c6e842b36c7ec09021804f874e9,Form,3,3,both_high_nomodal,1,input2,yes
1548125405,a6d96c6e842b36c7ec09021804f874e9,Form,3,3,both_high_nomodal,1,_REACTION_TIME_,11012
1548125405,a6d96c6e842b36c7ec09021804f874e9,Form,3,4,both_high_nomodal,1,q1,Alex
1548125405,a6d96c6e842b36c7ec09021804f874e9,Form,3,4,both_high_nomodal,1,q2,green
1548125405,a6d96c6e842b36c7ec09021804f874e9,Form,3,4,both_high_nomodal,1,_REACTION_TIME_,6010
1548125405,a6d96c6e842b36c7ec09021804f874e9,Form,13,0,outro,NULL,nativeq,yes
1548125405,a6d96c6e842b36c7ec09021804f874e9,Form,13,0,outro,NULL,_REACTION_TIME_,9091
#
# Results on Tuesday January 22 2019 02:50:49 UTC.
# USER AGENT: Mozilla/5.0 (Windows NT 6.1; WOW64; Trident/7.0; rv:11.0) like Gecko
# Design number was non-random = 147
#
# Columns below this comment are as follows:
# 1. Time results were received.
# 2. MD5 hash of participant's IP address.
# 3. Controller name.
# 4. Item number.
# 5. Element number.
# 6. Type.
# 7. Group.
# 8. Field name.
# 9. Field value.
1548125450,a6d96c6e842b36c7ec09021804f874e9,Form,0,0,intro,NULL,_REACTION_TIME_,3888
1548125450,a6d96c6e842b36c7ec09021804f874e9,Form,4,3,single_low_nomodal,1,input1,no
1548125450,a6d96c6e842b36c7ec09021804f874e9,Form,4,3,single_low_nomodal,1,input2,yes
1548125450,a6d96c6e842b36c7ec09021804f874e9,Form,4,3,single_low_nomodal,1,_REACTION_TIME_,6864
1548125450,a6d96c6e842b36c7ec09021804f874e9,Form,4,4,single_low_nomodal,1,q1,Alex
1548125450,a6d96c6e842b36c7ec09021804f874e9,Form,4,4,single_low_nomodal,1,q2,green
1548125450,a6d96c6e842b36c7ec09021804f874e9,Form,4,4,single_low_nomodal,1,_REACTION_TIME_,4924
1548125450,a6d96c6e842b36c7ec09021804f874e9,Form,13,0,outro,NULL,nativeq,yes
1548125450,a6d96c6e842b36c7ec09021804f874e9,Form,13,0,outro,NULL,_REACTION_TIME_,6299
#
# Results on Tuesday January 22 2019 02:52:11 UTC.
# USER AGENT: Mozilla/5.0 (Windows NT 6.1; WOW64; Trident/7.0; rv:11.0) like Gecko
# Design number was non-random = 148
#
# Columns below this comment are as follows:
# 1. Time results were received.
# 2. MD5 hash of participant's IP address.
# 3. Controller name.
# 4. Item number.
# 5. Element number.
# 6. Type.
# 7. Group.
# 8. Field name.
# 9. Field value.
1548125532,a6d96c6e842b36c7ec09021804f874e9,Form,0,0,intro,NULL,_REACTION_TIME_,1537
1548125532,a6d96c6e842b36c7ec09021804f874e9,Form,5,3,exhaust_low_nomodal,1,input1,no
1548125532,a6d96c6e842b36c7ec09021804f874e9,Form,5,3,exhaust_low_nomodal,1,input2,yes
1548125532,a6d96c6e842b36c7ec09021804f874e9,Form,5,3,exhaust_low_nomodal,1,_REACTION_TIME_,5787
1548125532,a6d96c6e842b36c7ec09021804f874e9,Form,5,4,exhaust_low_nomodal,1,q1,Alex
1548125532,a6d96c6e842b36c7ec09021804f874e9,Form,5,4,exhaust_low_nomodal,1,q2,green
1548125532,a6d96c6e842b36c7ec09021804f874e9,Form,5,4,exhaust_low_nomodal,1,_REACTION_TIME_,5300
1548125532,a6d96c6e842b36c7ec09021804f874e9,Form,13,0,outro,NULL,nativeq,yes
1548125532,a6d96c6e842b36c7ec09021804f874e9,Form,13,0,outro,NULL,_REACTION_TIME_,8201
#
# Results on Tuesday January 22 2019 02:53:01 UTC.
# USER AGENT: Mozilla/5.0 (Windows NT 6.1; WOW64; Trident/7.0; rv:11.0) like Gecko
# Design number was non-random = 149
#
# Columns below this comment are as follows:
# 1. Time results were received.
# 2. MD5 hash of participant's IP address.
# 3. Controller name.
# 4. Item number.
# 5. Element number.
# 6. Type.
# 7. Group.
# 8. Field name.
# 9. Field value.
1548125581,a6d96c6e842b36c7ec09021804f874e9,Form,0,0,intro,NULL,_REACTION_TIME_,6511
1548125581,a6d96c6e842b36c7ec09021804f874e9,Form,6,3,both_low_nomodal,1,input1,yes
1548125581,a6d96c6e842b36c7ec09021804f874e9,Form,6,3,both_low_nomodal,1,input2,yes
1548125581,a6d96c6e842b36c7ec09021804f874e9,Form,6,3,both_low_nomodal,1,_REACTION_TIME_,7626
1548125581,a6d96c6e842b36c7ec09021804f874e9,Form,6,4,both_low_nomodal,1,q1,Alex
1548125581,a6d96c6e842b36c7ec09021804f874e9,Form,6,4,both_low_nomodal,1,q2,green
1548125581,a6d96c6e842b36c7ec09021804f874e9,Form,6,4,both_low_nomodal,1,_REACTION_TIME_,4454
1548125581,a6d96c6e842b36c7ec09021804f874e9,Form,13,0,outro,NULL,nativeq,yes
1548125581,a6d96c6e842b36c7ec09021804f874e9,Form,13,0,outro,NULL,_REACTION_TIME_,10048
#
# Results on Tuesday January 22 2019 02:54:04 UTC.
# USER AGENT: Mozilla/5.0 (Windows NT 6.1; WOW64; Trident/7.0; rv:11.0) like Gecko
# Design number was non-random = 150
#
# Columns below this comment are as follows:
# 1. Time results were received.
# 2. MD5 hash of participant's IP address.
# 3. Controller name.
# 4. Item number.
# 5. Element number.
# 6. Type.
# 7. Group.
# 8. Field name.
# 9. Field value.
1548125644,a6d96c6e842b36c7ec09021804f874e9,Form,0,0,intro,NULL,_REACTION_TIME_,1550
1548125644,a6d96c6e842b36c7ec09021804f874e9,Form,7,3,single_high_modal,1,input1,yes
1548125644,a6d96c6e842b36c7ec09021804f874e9,Form,7,3,single_high_modal,1,input2,yes
1548125644,a6d96c6e842b36c7ec09021804f874e9,Form,7,3,single_high_modal,1,_REACTION_TIME_,27526
1548125644,a6d96c6e842b36c7ec09021804f874e9,Form,7,4,single_high_modal,1,q1,Alex
1548125644,a6d96c6e842b36c7ec09021804f874e9,Form,7,4,single_high_modal,1,q2,green
1548125644,a6d96c6e842b36c7ec09021804f874e9,Form,7,4,single_high_modal,1,_REACTION_TIME_,5945
1548125644,a6d96c6e842b36c7ec09021804f874e9,Form,13,0,outro,NULL,nativeq,yes
1548125644,a6d96c6e842b36c7ec09021804f874e9,Form,13,0,outro,NULL,_REACTION_TIME_,8327
#
# Results on Tuesday January 22 2019 02:55:05 UTC.
# USER AGENT: Mozilla/5.0 (Windows NT 6.1; WOW64; Trident/7.0; rv:11.0) like Gecko
# Design number was non-random = 151
#
# Columns below this comment are as follows:
# 1. Time results were received.
# 2. MD5 hash of participant's IP address.
# 3. Controller name.
# 4. Item number.
# 5. Element number.
# 6. Type.
# 7. Group.
# 8. Field name.
# 9. Field value.
1548125706,a6d96c6e842b36c7ec09021804f874e9,Form,0,0,intro,NULL,_REACTION_TIME_,1255
1548125706,a6d96c6e842b36c7ec09021804f874e9,Form,8,3,exhaust_high_modal,1,input1,yes
1548125706,a6d96c6e842b36c7ec09021804f874e9,Form,8,3,exhaust_high_modal,1,input2,no
1548125706,a6d96c6e842b36c7ec09021804f874e9,Form,8,3,exhaust_high_modal,1,_REACTION_TIME_,5325
1548125706,a6d96c6e842b36c7ec09021804f874e9,Form,8,4,exhaust_high_modal,1,q1,Alex
1548125706,a6d96c6e842b36c7ec09021804f874e9,Form,8,4,exhaust_high_modal,1,q2,green
1548125706,a6d96c6e842b36c7ec09021804f874e9,Form,8,4,exhaust_high_modal,1,_REACTION_TIME_,5053
1548125706,a6d96c6e842b36c7ec09021804f874e9,Form,13,0,outro,NULL,nativeq,yes
1548125706,a6d96c6e842b36c7ec09021804f874e9,Form,13,0,outro,NULL,_REACTION_TIME_,6764
#
# Results on Tuesday January 22 2019 02:55:40 UTC.
# USER AGENT: Mozilla/5.0 (Windows NT 6.1; WOW64; Trident/7.0; rv:11.0) like Gecko
# Design number was non-random = 152
#
# Columns below this comment are as follows:
# 1. Time results were received.
# 2. MD5 hash of participant's IP address.
# 3. Controller name.
# 4. Item number.
# 5. Element number.
# 6. Type.
# 7. Group.
# 8. Field name.
# 9. Field value.
1548125740,a6d96c6e842b36c7ec09021804f874e9,Form,0,0,intro,NULL,_REACTION_TIME_,1373
1548125740,a6d96c6e842b36c7ec09021804f874e9,Form,9,3,both_high_modal,1,input1,yes
1548125740,a6d96c6e842b36c7ec09021804f874e9,Form,9,3,both_high_modal,1,input2,yes
1548125740,a6d96c6e842b36c7ec09021804f874e9,Form,9,3,both_high_modal,1,_REACTION_TIME_,4198
1548125740,a6d96c6e842b36c7ec09021804f874e9,Form,9,4,both_high_modal,1,q1,Alex
1548125740,a6d96c6e842b36c7ec09021804f874e9,Form,9,4,both_high_modal,1,q2,green
1548125740,a6d96c6e842b36c7ec09021804f874e9,Form,9,4,both_high_modal,1,_REACTION_TIME_,3762
1548125740,a6d96c6e842b36c7ec09021804f874e9,Form,13,0,outro,NULL,nativeq,yes
1548125740,a6d96c6e842b36c7ec09021804f874e9,Form,13,0,outro,NULL,_REACTION_TIME_,8121
#
# Results on Tuesday January 22 2019 03:27:37 UTC.
# USER AGENT: Mozilla/5.0 (Windows NT 10.0; Win64; x64) AppleWebKit/537.36 (KHTML, like Gecko) Chrome/71.0.3578.80 Safari/537.36
# Design number was non-random = 153
#
# Columns below this comment are as follows:
# 1. Time results were received.
# 2. MD5 hash of participant's IP address.
# 3. Controller name.
# 4. Item number.
# 5. Element number.
# 6. Type.
# 7. Group.
# 8. Field name.
# 9. Field value.
1548127658,b8d309dfb0306d9e62efd06441f6f300,Form,0,0,intro,NULL,_REACTION_TIME_,4542
1548127658,b8d309dfb0306d9e62efd06441f6f300,Form,10,3,single_low_modal,1,input1,no
1548127658,b8d309dfb0306d9e62efd06441f6f300,Form,10,3,single_low_modal,1,input2,yes
1548127658,b8d309dfb0306d9e62efd06441f6f300,Form,10,3,single_low_modal,1,_REACTION_TIME_,12522
1548127658,b8d309dfb0306d9e62efd06441f6f300,Form,10,4,single_low_modal,1,q1,Alex
1548127658,b8d309dfb0306d9e62efd06441f6f300,Form,10,4,single_low_modal,1,q2,green
1548127658,b8d309dfb0306d9e62efd06441f6f300,Form,10,4,single_low_modal,1,_REACTION_TIME_,10038
1548127658,b8d309dfb0306d9e62efd06441f6f300,Form,13,0,outro,NULL,nativeq,yes
1548127658,b8d309dfb0306d9e62efd06441f6f300,Form,13,0,outro,NULL,_REACTION_TIME_,5686
#
# Results on Tuesday January 22 2019 03:31:43 UTC.
# USER AGENT: Mozilla/5.0 (Windows NT 10.0; Win64; x64; rv:64.0) Gecko/20100101 Firefox/64.0
# Design number was non-random = 154
#
# Columns below this comment are as follows:
# 1. Time results were received.
# 2. MD5 hash of participant's IP address.
# 3. Controller name.
# 4. Item number.
# 5. Element number.
# 6. Type.
# 7. Group.
# 8. Field name.
# 9. Field value.
1548127903,0415f6723a872e4400721cbd8e12111b,Form,0,0,intro,NULL,_REACTION_TIME_,6706
1548127903,0415f6723a872e4400721cbd8e12111b,Form,11,3,exhaust_low_modal,1,input1,no
1548127903,0415f6723a872e4400721cbd8e12111b,Form,11,3,exhaust_low_modal,1,input2,yes
1548127903,0415f6723a872e4400721cbd8e12111b,Form,11,3,exhaust_low_modal,1,_REACTION_TIME_,10475
1548127903,0415f6723a872e4400721cbd8e12111b,Form,11,4,exhaust_low_modal,1,q1,Alex
1548127903,0415f6723a872e4400721cbd8e12111b,Form,11,4,exhaust_low_modal,1,q2,green
1548127903,0415f6723a872e4400721cbd8e12111b,Form,11,4,exhaust_low_modal,1,_REACTION_TIME_,24119
1548127903,0415f6723a872e4400721cbd8e12111b,Form,13,0,outro,NULL,nativeq,yes
1548127903,0415f6723a872e4400721cbd8e12111b,Form,13,0,outro,NULL,_REACTION_TIME_,11019
#
# Results on Tuesday January 22 2019 03:56:10 UTC.
# USER AGENT: Mozilla/5.0 (Windows NT 10.0; WOW64) AppleWebKit/537.36 (KHTML, like Gecko) Chrome/71.0.3578.98 Safari/537.36
# Design number was non-random = 155
#
# Columns below this comment are as follows:
# 1. Time results were received.
# 2. MD5 hash of participant's IP address.
# 3. Controller name.
# 4. Item number.
# 5. Element number.
# 6. Type.
# 7. Group.
# 8. Field name.
# 9. Field value.
1548129371,c5325a4171785aaab38aed3f404ab45c,Form,0,0,intro,NULL,_REACTION_TIME_,1606
1548129371,c5325a4171785aaab38aed3f404ab45c,Form,12,3,both_low_modal,1,input1,yes
1548129371,c5325a4171785aaab38aed3f404ab45c,Form,12,3,both_low_modal,1,input2,yes
1548129371,c5325a4171785aaab38aed3f404ab45c,Form,12,3,both_low_modal,1,_REACTION_TIME_,9453
1548129371,c5325a4171785aaab38aed3f404ab45c,Form,12,4,both_low_modal,1,q1,Sam
1548129371,c5325a4171785aaab38aed3f404ab45c,Form,12,4,both_low_modal,1,q2,green
1548129371,c5325a4171785aaab38aed3f404ab45c,Form,12,4,both_low_modal,1,_REACTION_TIME_,7046
1548129371,c5325a4171785aaab38aed3f404ab45c,Form,13,0,outro,NULL,nativeq,yes
1548129371,c5325a4171785aaab38aed3f404ab45c,Form,13,0,outro,NULL,_REACTION_TIME_,3885
#
# Results on Tuesday January 22 2019 04:44:16 UTC.
# USER AGENT: Mozilla/5.0 (Windows NT 10.0; Win64; x64) AppleWebKit/537.36 (KHTML, like Gecko) Chrome/71.0.3578.98 Safari/537.36
# Design number was non-random = 156
#
# Columns below this comment are as follows:
# 1. Time results were received.
# 2. MD5 hash of participant's IP address.
# 3. Controller name.
# 4. Item number.
# 5. Element number.
# 6. Type.
# 7. Group.
# 8. Field name.
# 9. Field value.
1548132257,0bb39df0b182fbb3212d801556f9def8,Form,0,0,intro,NULL,_REACTION_TIME_,7962
1548132257,0bb39df0b182fbb3212d801556f9def8,Form,1,3,single_high_nomodal,1,input1,yes
1548132257,0bb39df0b182fbb3212d801556f9def8,Form,1,3,single_high_nomodal,1,input2,no
1548132257,0bb39df0b182fbb3212d801556f9def8,Form,1,3,single_high_nomodal,1,_REACTION_TIME_,20610
1548132257,0bb39df0b182fbb3212d801556f9def8,Form,1,4,single_high_nomodal,1,q1,Alex
1548132257,0bb39df0b182fbb3212d801556f9def8,Form,1,4,single_high_nomodal,1,q2,green
1548132257,0bb39df0b182fbb3212d801556f9def8,Form,1,4,single_high_nomodal,1,_REACTION_TIME_,5237
1548132257,0bb39df0b182fbb3212d801556f9def8,Form,13,0,outro,NULL,nativeq,yes
1548132257,0bb39df0b182fbb3212d801556f9def8,Form,13,0,outro,NULL,_REACTION_TIME_,4552
#
# Results on Tuesday January 22 2019 04:54:47 UTC.
# USER AGENT: Mozilla/5.0 (X11; CrOS x86_64 11151.59.0) AppleWebKit/537.36 (KHTML, like Gecko) Chrome/71.0.3578.94 Safari/537.36
# Design number was non-random = 157
#
# Columns below this comment are as follows:
# 1. Time results were received.
# 2. MD5 hash of participant's IP address.
# 3. Controller name.
# 4. Item number.
# 5. Element number.
# 6. Type.
# 7. Group.
# 8. Field name.
# 9. Field value.
1548132888,20f2f1976e76a978fedbbab8ca30b77c,Form,0,0,intro,NULL,_REACTION_TIME_,3856
1548132888,20f2f1976e76a978fedbbab8ca30b77c,Form,2,3,exhaust_high_nomodal,1,input1,yes
1548132888,20f2f1976e76a978fedbbab8ca30b77c,Form,2,3,exhaust_high_nomodal,1,input2,no
1548132888,20f2f1976e76a978fedbbab8ca30b77c,Form,2,3,exhaust_high_nomodal,1,_REACTION_TIME_,13522
1548132888,20f2f1976e76a978fedbbab8ca30b77c,Form,2,4,exhaust_high_nomodal,1,q1,Alex
1548132888,20f2f1976e76a978fedbbab8ca30b77c,Form,2,4,exhaust_high_nomodal,1,q2,green
1548132888,20f2f1976e76a978fedbbab8ca30b77c,Form,2,4,exhaust_high_nomodal,1,_REACTION_TIME_,7185
1548132888,20f2f1976e76a978fedbbab8ca30b77c,Form,13,0,outro,NULL,nativeq,yes
1548132888,20f2f1976e76a978fedbbab8ca30b77c,Form,13,0,outro,NULL,_REACTION_TIME_,19042
#
# Results on Tuesday January 22 2019 05:38:17 UTC.
# USER AGENT: Mozilla/5.0 (Windows NT 6.1; Win64; x64) AppleWebKit/537.36 (KHTML, like Gecko) Chrome/71.0.3578.98 Safari/537.36
# Design number was non-random = 158
#
# Columns below this comment are as follows:
# 1. Time results were received.
# 2. MD5 hash of participant's IP address.
# 3. Controller name.
# 4. Item number.
# 5. Element number.
# 6. Type.
# 7. Group.
# 8. Field name.
# 9. Field value.
1548135498,b40718ae9c7010bce0cc15b858ae9aa9,Form,0,0,intro,NULL,_REACTION_TIME_,11418
1548135498,b40718ae9c7010bce0cc15b858ae9aa9,Form,3,3,both_high_nomodal,1,input1,yes
1548135498,b40718ae9c7010bce0cc15b858ae9aa9,Form,3,3,both_high_nomodal,1,input2,yes
1548135498,b40718ae9c7010bce0cc15b858ae9aa9,Form,3,3,both_high_nomodal,1,_REACTION_TIME_,17734
1548135498,b40718ae9c7010bce0cc15b858ae9aa9,Form,3,4,both_high_nomodal,1,q1,Alex
1548135498,b40718ae9c7010bce0cc15b858ae9aa9,Form,3,4,both_high_nomodal,1,q2,green
1548135498,b40718ae9c7010bce0cc15b858ae9aa9,Form,3,4,both_high_nomodal,1,_REACTION_TIME_,6320
1548135498,b40718ae9c7010bce0cc15b858ae9aa9,Form,13,0,outro,NULL,nativeq,yes
1548135498,b40718ae9c7010bce0cc15b858ae9aa9,Form,13,0,outro,NULL,_REACTION_TIME_,12791
#
# Results on Tuesday January 22 2019 06:48:16 UTC.
# USER AGENT: Mozilla/5.0 (Windows NT 10.0; Win64; x64) AppleWebKit/537.36 (KHTML, like Gecko) Chrome/71.0.3578.98 Safari/537.36
# Design number was non-random = 159
#
# Columns below this comment are as follows:
# 1. Time results were received.
# 2. MD5 hash of participant's IP address.
# 3. Controller name.
# 4. Item number.
# 5. Element number.
# 6. Type.
# 7. Group.
# 8. Field name.
# 9. Field value.
1548139697,10ef1f9e89fcca3c34efbc20ace9f3fd,Form,0,0,intro,NULL,_REACTION_TIME_,14595
1548139697,10ef1f9e89fcca3c34efbc20ace9f3fd,Form,4,3,single_low_nomodal,1,input1,no
1548139697,10ef1f9e89fcca3c34efbc20ace9f3fd,Form,4,3,single_low_nomodal,1,input2,yes
1548139697,10ef1f9e89fcca3c34efbc20ace9f3fd,Form,4,3,single_low_nomodal,1,_REACTION_TIME_,14012
1548139697,10ef1f9e89fcca3c34efbc20ace9f3fd,Form,4,4,single_low_nomodal,1,q1,Alex
1548139697,10ef1f9e89fcca3c34efbc20ace9f3fd,Form,4,4,single_low_nomodal,1,q2,green
1548139697,10ef1f9e89fcca3c34efbc20ace9f3fd,Form,4,4,single_low_nomodal,1,_REACTION_TIME_,5020
1548139697,10ef1f9e89fcca3c34efbc20ace9f3fd,Form,13,0,outro,NULL,nativeq,yes
1548139697,10ef1f9e89fcca3c34efbc20ace9f3fd,Form,13,0,outro,NULL,_REACTION_TIME_,5496
#
# Results on Tuesday January 22 2019 06:48:30 UTC.
# USER AGENT: Mozilla/5.0 (Windows NT 6.1) AppleWebKit/537.36 (KHTML, like Gecko) Chrome/71.0.3578.98 Safari/537.36
# Design number was non-random = 159
#
# Columns below this comment are as follows:
# 1. Time results were received.
# 2. MD5 hash of participant's IP address.
# 3. Controller name.
# 4. Item number.
# 5. Element number.
# 6. Type.
# 7. Group.
# 8. Field name.
# 9. Field value.
1548139711,c46301bb1d937d087b13f31f86e682c6,Form,0,0,intro,NULL,_REACTION_TIME_,1650
1548139711,c46301bb1d937d087b13f31f86e682c6,Form,4,3,single_low_nomodal,1,input1,no
1548139711,c46301bb1d937d087b13f31f86e682c6,Form,4,3,single_low_nomodal,1,input2,yes
1548139711,c46301bb1d937d087b13f31f86e682c6,Form,4,3,single_low_nomodal,1,_REACTION_TIME_,8546
1548139711,c46301bb1d937d087b13f31f86e682c6,Form,4,4,single_low_nomodal,1,q1,Sam
1548139711,c46301bb1d937d087b13f31f86e682c6,Form,4,4,single_low_nomodal,1,q2,green
1548139711,c46301bb1d937d087b13f31f86e682c6,Form,4,4,single_low_nomodal,1,_REACTION_TIME_,24376
1548139711,c46301bb1d937d087b13f31f86e682c6,Form,13,0,outro,NULL,nativeq,yes
1548139711,c46301bb1d937d087b13f31f86e682c6,Form,13,0,outro,NULL,_REACTION_TIME_,11171
#
# Results on Tuesday January 22 2019 06:48:42 UTC.
# USER AGENT: Mozilla/5.0 (Windows NT 10.0; Win64; x64) AppleWebKit/537.36 (KHTML, like Gecko) Chrome/71.0.3578.98 Safari/537.36
# Design number was non-random = 159
#
# Columns below this comment are as follows:
# 1. Time results were received.
# 2. MD5 hash of participant's IP address.
# 3. Controller name.
# 4. Item number.
# 5. Element number.
# 6. Type.
# 7. Group.
# 8. Field name.
# 9. Field value.
1548139722,9cf266b1aa26fa4f758a85835fc76493,Form,0,0,intro,NULL,_REACTION_TIME_,7804
1548139722,9cf266b1aa26fa4f758a85835fc76493,Form,4,3,single_low_nomodal,1,input1,no
1548139722,9cf266b1aa26fa4f758a85835fc76493,Form,4,3,single_low_nomodal,1,input2,yes
1548139722,9cf266b1aa26fa4f758a85835fc76493,Form,4,3,single_low_nomodal,1,_REACTION_TIME_,7260
1548139722,9cf266b1aa26fa4f758a85835fc76493,Form,4,4,single_low_nomodal,1,q1,Alex
1548139722,9cf266b1aa26fa4f758a85835fc76493,Form,4,4,single_low_nomodal,1,q2,green
1548139722,9cf266b1aa26fa4f758a85835fc76493,Form,4,4,single_low_nomodal,1,_REACTION_TIME_,4198
1548139722,9cf266b1aa26fa4f758a85835fc76493,Form,13,0,outro,NULL,nativeq,yes
1548139722,9cf266b1aa26fa4f758a85835fc76493,Form,13,0,outro,NULL,_REACTION_TIME_,9331
#
# Results on Tuesday January 22 2019 06:48:44 UTC.
# USER AGENT: Mozilla/5.0 (Macintosh; Intel Mac OS X 10_13_6) AppleWebKit/537.36 (KHTML, like Gecko) Chrome/71.0.3578.98 Safari/537.36
# Design number was non-random = 159
#
# Columns below this comment are as follows:
# 1. Time results were received.
# 2. MD5 hash of participant's IP address.
# 3. Controller name.
# 4. Item number.
# 5. Element number.
# 6. Type.
# 7. Group.
# 8. Field name.
# 9. Field value.
1548139725,4e80aa9a51335fca47256a87978ed21b,Form,0,0,intro,NULL,_REACTION_TIME_,9918
1548139725,4e80aa9a51335fca47256a87978ed21b,Form,4,3,single_low_nomodal,1,input1,no
1548139725,4e80aa9a51335fca47256a87978ed21b,Form,4,3,single_low_nomodal,1,input2,yes
1548139725,4e80aa9a51335fca47256a87978ed21b,Form,4,3,single_low_nomodal,1,_REACTION_TIME_,11814
1548139725,4e80aa9a51335fca47256a87978ed21b,Form,4,4,single_low_nomodal,1,q1,Alex
1548139725,4e80aa9a51335fca47256a87978ed21b,Form,4,4,single_low_nomodal,1,q2,green
1548139725,4e80aa9a51335fca47256a87978ed21b,Form,4,4,single_low_nomodal,1,_REACTION_TIME_,3887
1548139725,4e80aa9a51335fca47256a87978ed21b,Form,13,0,outro,NULL,nativeq,yes
1548139725,4e80aa9a51335fca47256a87978ed21b,Form,13,0,outro,NULL,_REACTION_TIME_,5727
#
# Results on Tuesday January 22 2019 06:48:46 UTC.
# USER AGENT: Mozilla/5.0 (Windows NT 10.0; Win64; x64) AppleWebKit/537.36 (KHTML, like Gecko) Chrome/71.0.3578.98 Safari/537.36
# Design number was non-random = 159
#
# Columns below this comment are as follows:
# 1. Time results were received.
# 2. MD5 hash of participant's IP address.
# 3. Controller name.
# 4. Item number.
# 5. Element number.
# 6. Type.
# 7. Group.
# 8. Field name.
# 9. Field value.
1548139727,e69139108e0baedba432bf3f8a622648,Form,0,0,intro,NULL,_REACTION_TIME_,13296
1548139727,e69139108e0baedba432bf3f8a622648,Form,4,3,single_low_nomodal,1,input1,no
1548139727,e69139108e0baedba432bf3f8a622648,Form,4,3,single_low_nomodal,1,input2,yes
1548139727,e69139108e0baedba432bf3f8a622648,Form,4,3,single_low_nomodal,1,_REACTION_TIME_,10079
1548139727,e69139108e0baedba432bf3f8a622648,Form,4,4,single_low_nomodal,1,q1,Alex
1548139727,e69139108e0baedba432bf3f8a622648,Form,4,4,single_low_nomodal,1,q2,green
1548139727,e69139108e0baedba432bf3f8a622648,Form,4,4,single_low_nomodal,1,_REACTION_TIME_,6311
1548139727,e69139108e0baedba432bf3f8a622648,Form,13,0,outro,NULL,nativeq,yes
1548139727,e69139108e0baedba432bf3f8a622648,Form,13,0,outro,NULL,_REACTION_TIME_,8015
#
# Results on Tuesday January 22 2019 06:48:47 UTC.
# USER AGENT: Mozilla/5.0 (Windows NT 6.1) AppleWebKit/537.36 (KHTML, like Gecko) Chrome/71.0.3578.98 Safari/537.36
# Design number was non-random = 159
#
# Columns below this comment are as follows:
# 1. Time results were received.
# 2. MD5 hash of participant's IP address.
# 3. Controller name.
# 4. Item number.
# 5. Element number.
# 6. Type.
# 7. Group.
# 8. Field name.
# 9. Field value.
1548139727,ddeb3182c9a882d008c1f366014997f9,Form,0,0,intro,NULL,_REACTION_TIME_,12817
1548139727,ddeb3182c9a882d008c1f366014997f9,Form,4,3,single_low_nomodal,1,input1,yes
1548139727,ddeb3182c9a882d008c1f366014997f9,Form,4,3,single_low_nomodal,1,input2,no
1548139727,ddeb3182c9a882d008c1f366014997f9,Form,4,3,single_low_nomodal,1,_REACTION_TIME_,10108
1548139727,ddeb3182c9a882d008c1f366014997f9,Form,4,4,single_low_nomodal,1,q1,Alex
1548139727,ddeb3182c9a882d008c1f366014997f9,Form,4,4,single_low_nomodal,1,q2,green
1548139727,ddeb3182c9a882d008c1f366014997f9,Form,4,4,single_low_nomodal,1,_REACTION_TIME_,4351
1548139727,ddeb3182c9a882d008c1f366014997f9,Form,13,0,outro,NULL,nativeq,yes
1548139727,ddeb3182c9a882d008c1f366014997f9,Form,13,0,outro,NULL,_REACTION_TIME_,4152
#
# Results on Tuesday January 22 2019 06:48:51 UTC.
# USER AGENT: Mozilla/5.0 (Linux; Android 6.0.1; SM-G900V) AppleWebKit/537.36 (KHTML, like Gecko) Chrome/71.0.3578.99 Mobile Safari/537.36
# Design number was non-random = 159
#
# Columns below this comment are as follows:
# 1. Time results were received.
# 2. MD5 hash of participant's IP address.
# 3. Controller name.
# 4. Item number.
# 5. Element number.
# 6. Type.
# 7. Group.
# 8. Field name.
# 9. Field value.
1548139732,466e5c17ab2f0ef51cc67e1a74857b86,Form,0,0,intro,NULL,_REACTION_TIME_,3354
1548139732,466e5c17ab2f0ef51cc67e1a74857b86,Form,4,3,single_low_nomodal,1,input1,yes
1548139732,466e5c17ab2f0ef51cc67e1a74857b86,Form,4,3,single_low_nomodal,1,input2,no
1548139732,466e5c17ab2f0ef51cc67e1a74857b86,Form,4,3,single_low_nomodal,1,_REACTION_TIME_,9530
1548139732,466e5c17ab2f0ef51cc67e1a74857b86,Form,4,4,single_low_nomodal,1,q1,Alex
1548139732,466e5c17ab2f0ef51cc67e1a74857b86,Form,4,4,single_low_nomodal,1,q2,green
1548139732,466e5c17ab2f0ef51cc67e1a74857b86,Form,4,4,single_low_nomodal,1,_REACTION_TIME_,10302
1548139732,466e5c17ab2f0ef51cc67e1a74857b86,Form,13,0,outro,NULL,nativeq,yes
1548139732,466e5c17ab2f0ef51cc67e1a74857b86,Form,13,0,outro,NULL,_REACTION_TIME_,8470
#
# Results on Tuesday January 22 2019 06:49:01 UTC.
# USER AGENT: Mozilla/5.0 (Macintosh; Intel Mac OS X 10_13_6) AppleWebKit/537.36 (KHTML, like Gecko) Chrome/71.0.3578.98 Safari/537.36
# Design number was non-random = 161
#
# Columns below this comment are as follows:
# 1. Time results were received.
# 2. MD5 hash of participant's IP address.
# 3. Controller name.
# 4. Item number.
# 5. Element number.
# 6. Type.
# 7. Group.
# 8. Field name.
# 9. Field value.
1548139741,6ec48555c0f1e115766f62e21ec63c1c,Form,0,0,intro,NULL,_REACTION_TIME_,1272
1548139741,6ec48555c0f1e115766f62e21ec63c1c,Form,6,3,both_low_nomodal,1,input1,yes
1548139741,6ec48555c0f1e115766f62e21ec63c1c,Form,6,3,both_low_nomodal,1,input2,no
1548139741,6ec48555c0f1e115766f62e21ec63c1c,Form,6,3,both_low_nomodal,1,_REACTION_TIME_,6392
1548139741,6ec48555c0f1e115766f62e21ec63c1c,Form,6,4,both_low_nomodal,1,q1,Alex
1548139741,6ec48555c0f1e115766f62e21ec63c1c,Form,6,4,both_low_nomodal,1,q2,green
1548139741,6ec48555c0f1e115766f62e21ec63c1c,Form,6,4,both_low_nomodal,1,_REACTION_TIME_,6100
1548139741,6ec48555c0f1e115766f62e21ec63c1c,Form,13,0,outro,NULL,nativeq,yes
1548139741,6ec48555c0f1e115766f62e21ec63c1c,Form,13,0,outro,NULL,_REACTION_TIME_,4438
#
# Results on Tuesday January 22 2019 06:49:03 UTC.
# USER AGENT: Mozilla/5.0 (X11; CrOS x86_64 11151.59.0) AppleWebKit/537.36 (KHTML, like Gecko) Chrome/71.0.3578.94 Safari/537.36
# Design number was non-random = 159
#
# Columns below this comment are as follows:
# 1. Time results were received.
# 2. MD5 hash of participant's IP address.
# 3. Controller name.
# 4. Item number.
# 5. Element number.
# 6. Type.
# 7. Group.
# 8. Field name.
# 9. Field value.
1548139744,7b9bbe7258ce7b1ecaadc8b092d8d836,Form,0,0,intro,NULL,_REACTION_TIME_,11209
1548139744,7b9bbe7258ce7b1ecaadc8b092d8d836,Form,4,3,single_low_nomodal,1,input1,no
1548139744,7b9bbe7258ce7b1ecaadc8b092d8d836,Form,4,3,single_low_nomodal,1,input2,yes
1548139744,7b9bbe7258ce7b1ecaadc8b092d8d836,Form,4,3,single_low_nomodal,1,_REACTION_TIME_,13443
1548139744,7b9bbe7258ce7b1ecaadc8b092d8d836,Form,4,4,single_low_nomodal,1,q1,Alex
1548139744,7b9bbe7258ce7b1ecaadc8b092d8d836,Form,4,4,single_low_nomodal,1,q2,green
1548139744,7b9bbe7258ce7b1ecaadc8b092d8d836,Form,4,4,single_low_nomodal,1,_REACTION_TIME_,5515
1548139744,7b9bbe7258ce7b1ecaadc8b092d8d836,Form,13,0,outro,NULL,nativeq,yes
1548139744,7b9bbe7258ce7b1ecaadc8b092d8d836,Form,13,0,outro,NULL,_REACTION_TIME_,7565
#
# Results on Tuesday January 22 2019 06:49:05 UTC.
# USER AGENT: Mozilla/5.0 (Windows NT 6.1; Win64; x64) AppleWebKit/537.36 (KHTML, like Gecko) Chrome/71.0.3578.98 Safari/537.36
# Design number was non-random = 159
#
# Columns below this comment are as follows:
# 1. Time results were received.
# 2. MD5 hash of participant's IP address.
# 3. Controller name.
# 4. Item number.
# 5. Element number.
# 6. Type.
# 7. Group.
# 8. Field name.
# 9. Field value.
1548139746,873ccb8b7315ff6590c07c3f19497247,Form,0,0,intro,NULL,_REACTION_TIME_,2221
1548139746,873ccb8b7315ff6590c07c3f19497247,Form,4,3,single_low_nomodal,1,input1,yes
1548139746,873ccb8b7315ff6590c07c3f19497247,Form,4,3,single_low_nomodal,1,input2,no
1548139746,873ccb8b7315ff6590c07c3f19497247,Form,4,3,single_low_nomodal,1,_REACTION_TIME_,11849
1548139746,873ccb8b7315ff6590c07c3f19497247,Form,4,4,single_low_nomodal,1,q1,Alex
1548139746,873ccb8b7315ff6590c07c3f19497247,Form,4,4,single_low_nomodal,1,q2,tan
1548139746,873ccb8b7315ff6590c07c3f19497247,Form,4,4,single_low_nomodal,1,_REACTION_TIME_,8629
1548139746,873ccb8b7315ff6590c07c3f19497247,Form,13,0,outro,NULL,nativeq,yes
1548139746,873ccb8b7315ff6590c07c3f19497247,Form,13,0,outro,NULL,_REACTION_TIME_,16019
#
# Results on Tuesday January 22 2019 06:49:06 UTC.
# USER AGENT: Mozilla/5.0 (Windows NT 10.0; Win64; x64) AppleWebKit/537.36 (KHTML, like Gecko) Chrome/71.0.3578.98 Safari/537.36
# Design number was non-random = 160
#
# Columns below this comment are as follows:
# 1. Time results were received.
# 2. MD5 hash of participant's IP address.
# 3. Controller name.
# 4. Item number.
# 5. Element number.
# 6. Type.
# 7. Group.
# 8. Field name.
# 9. Field value.
1548139746,a670b30df7727c4c52115ba1e4778e93,Form,0,0,intro,NULL,_REACTION_TIME_,3609
1548139746,a670b30df7727c4c52115ba1e4778e93,Form,5,3,exhaust_low_nomodal,1,input1,no
1548139746,a670b30df7727c4c52115ba1e4778e93,Form,5,3,exhaust_low_nomodal,1,input2,yes
1548139746,a670b30df7727c4c52115ba1e4778e93,Form,5,3,exhaust_low_nomodal,1,_REACTION_TIME_,9285
1548139746,a670b30df7727c4c52115ba1e4778e93,Form,5,4,exhaust_low_nomodal,1,q1,Alex
1548139746,a670b30df7727c4c52115ba1e4778e93,Form,5,4,exhaust_low_nomodal,1,q2,green
1548139746,a670b30df7727c4c52115ba1e4778e93,Form,5,4,exhaust_low_nomodal,1,_REACTION_TIME_,6046
1548139746,a670b30df7727c4c52115ba1e4778e93,Form,13,0,outro,NULL,nativeq,yes
1548139746,a670b30df7727c4c52115ba1e4778e93,Form,13,0,outro,NULL,_REACTION_TIME_,8927
#
# Results on Tuesday January 22 2019 06:49:06 UTC.
# USER AGENT: Mozilla/5.0 (Macintosh; Intel Mac OS X 10_13_6) AppleWebKit/537.36 (KHTML, like Gecko) Chrome/71.0.3578.98 Safari/537.36
# Design number was non-random = 159
#
# Columns below this comment are as follows:
# 1. Time results were received.
# 2. MD5 hash of participant's IP address.
# 3. Controller name.
# 4. Item number.
# 5. Element number.
# 6. Type.
# 7. Group.
# 8. Field name.
# 9. Field value.
1548139746,82a04a41ee9ff8c6d353e9d95b93c310,Form,0,0,intro,NULL,_REACTION_TIME_,13789
1548139746,82a04a41ee9ff8c6d353e9d95b93c310,Form,4,3,single_low_nomodal,1,input1,no
1548139746,82a04a41ee9ff8c6d353e9d95b93c310,Form,4,3,single_low_nomodal,1,input2,yes
1548139746,82a04a41ee9ff8c6d353e9d95b93c310,Form,4,3,single_low_nomodal,1,_REACTION_TIME_,8939
1548139746,82a04a41ee9ff8c6d353e9d95b93c310,Form,4,4,single_low_nomodal,1,q1,Alex
1548139746,82a04a41ee9ff8c6d353e9d95b93c310,Form,4,4,single_low_nomodal,1,q2,green
1548139746,82a04a41ee9ff8c6d353e9d95b93c310,Form,4,4,single_low_nomodal,1,_REACTION_TIME_,8727
1548139746,82a04a41ee9ff8c6d353e9d95b93c310,Form,13,0,outro,NULL,nativeq,yes
1548139746,82a04a41ee9ff8c6d353e9d95b93c310,Form,13,0,outro,NULL,_REACTION_TIME_,7309
#
# Results on Tuesday January 22 2019 06:49:11 UTC.
# USER AGENT: Mozilla/5.0 (Macintosh; Intel Mac OS X 10.11; rv:64.0) Gecko/20100101 Firefox/64.0
# Design number was non-random = 159
#
# Columns below this comment are as follows:
# 1. Time results were received.
# 2. MD5 hash of participant's IP address.
# 3. Controller name.
# 4. Item number.
# 5. Element number.
# 6. Type.
# 7. Group.
# 8. Field name.
# 9. Field value.
1548139751,6d4ea74f140d8f23f4e66ba0f318a201,Form,0,0,intro,NULL,_REACTION_TIME_,5529
1548139751,6d4ea74f140d8f23f4e66ba0f318a201,Form,4,3,single_low_nomodal,1,input1,no
1548139751,6d4ea74f140d8f23f4e66ba0f318a201,Form,4,3,single_low_nomodal,1,input2,yes
1548139751,6d4ea74f140d8f23f4e66ba0f318a201,Form,4,3,single_low_nomodal,1,_REACTION_TIME_,19755
1548139751,6d4ea74f140d8f23f4e66ba0f318a201,Form,4,4,single_low_nomodal,1,q1,Alex
1548139751,6d4ea74f140d8f23f4e66ba0f318a201,Form,4,4,single_low_nomodal,1,q2,green
1548139751,6d4ea74f140d8f23f4e66ba0f318a201,Form,4,4,single_low_nomodal,1,_REACTION_TIME_,26063
1548139751,6d4ea74f140d8f23f4e66ba0f318a201,Form,13,0,outro,NULL,nativeq,yes
1548139751,6d4ea74f140d8f23f4e66ba0f318a201,Form,13,0,outro,NULL,_REACTION_TIME_,12044
#
# Results on Tuesday January 22 2019 06:49:11 UTC.
# USER AGENT: Mozilla/5.0 (Windows NT 10.0; Win64; x64) AppleWebKit/537.36 (KHTML, like Gecko) Chrome/71.0.3578.98 Safari/537.36
# Design number was non-random = 159
#
# Columns below this comment are as follows:
# 1. Time results were received.
# 2. MD5 hash of participant's IP address.
# 3. Controller name.
# 4. Item number.
# 5. Element number.
# 6. Type.
# 7. Group.
# 8. Field name.
# 9. Field value.
1548139752,42468dce8e73aa315ccc7051fe60ca0d,Form,0,0,intro,NULL,_REACTION_TIME_,1569
1548139752,42468dce8e73aa315ccc7051fe60ca0d,Form,4,3,single_low_nomodal,1,input1,no
1548139752,42468dce8e73aa315ccc7051fe60ca0d,Form,4,3,single_low_nomodal,1,input2,yes
1548139752,42468dce8e73aa315ccc7051fe60ca0d,Form,4,3,single_low_nomodal,1,_REACTION_TIME_,19412
1548139752,42468dce8e73aa315ccc7051fe60ca0d,Form,4,4,single_low_nomodal,1,q1,Alex
1548139752,42468dce8e73aa315ccc7051fe60ca0d,Form,4,4,single_low_nomodal,1,q2,green
1548139752,42468dce8e73aa315ccc7051fe60ca0d,Form,4,4,single_low_nomodal,1,_REACTION_TIME_,8114
1548139752,42468dce8e73aa315ccc7051fe60ca0d,Form,13,0,outro,NULL,nativeq,yes
1548139752,42468dce8e73aa315ccc7051fe60ca0d,Form,13,0,outro,NULL,_REACTION_TIME_,21839
#
# Results on Tuesday January 22 2019 06:49:12 UTC.
# USER AGENT: Mozilla/5.0 (Windows NT 6.1) AppleWebKit/537.36 (KHTML, like Gecko) Chrome/71.0.3578.98 Safari/537.36
# Design number was non-random = 160
#
# Columns below this comment are as follows:
# 1. Time results were received.
# 2. MD5 hash of participant's IP address.
# 3. Controller name.
# 4. Item number.
# 5. Element number.
# 6. Type.
# 7. Group.
# 8. Field name.
# 9. Field value.
1548139753,398ea6913d203929974eef55fceb6b30,Form,0,0,intro,NULL,_REACTION_TIME_,3342
1548139753,398ea6913d203929974eef55fceb6b30,Form,5,3,exhaust_low_nomodal,1,input1,yes
1548139753,398ea6913d203929974eef55fceb6b30,Form,5,3,exhaust_low_nomodal,1,input2,no
1548139753,398ea6913d203929974eef55fceb6b30,Form,5,3,exhaust_low_nomodal,1,_REACTION_TIME_,13397
1548139753,398ea6913d203929974eef55fceb6b30,Form,5,4,exhaust_low_nomodal,1,q1,Alex
1548139753,398ea6913d203929974eef55fceb6b30,Form,5,4,exhaust_low_nomodal,1,q2,green
1548139753,398ea6913d203929974eef55fceb6b30,Form,5,4,exhaust_low_nomodal,1,_REACTION_TIME_,4805
1548139753,398ea6913d203929974eef55fceb6b30,Form,13,0,outro,NULL,nativeq,yes
1548139753,398ea6913d203929974eef55fceb6b30,Form,13,0,outro,NULL,_REACTION_TIME_,22626
#
# Results on Tuesday January 22 2019 06:49:25 UTC.
# USER AGENT: Mozilla/5.0 (Windows NT 10.0; Win64; x64) AppleWebKit/537.36 (KHTML, like Gecko) Chrome/71.0.3578.98 Safari/537.36
# Design number was non-random = 159
#
# Columns below this comment are as follows:
# 1. Time results were received.
# 2. MD5 hash of participant's IP address.
# 3. Controller name.
# 4. Item number.
# 5. Element number.
# 6. Type.
# 7. Group.
# 8. Field name.
# 9. Field value.
1548139765,f9a60fc23ea5f9248c05880d4638a490,Form,0,0,intro,NULL,_REACTION_TIME_,90056
1548139765,f9a60fc23ea5f9248c05880d4638a490,Form,4,3,single_low_nomodal,1,input1,yes
1548139765,f9a60fc23ea5f9248c05880d4638a490,Form,4,3,single_low_nomodal,1,input2,no
1548139765,f9a60fc23ea5f9248c05880d4638a490,Form,4,3,single_low_nomodal,1,_REACTION_TIME_,4647
1548139765,f9a60fc23ea5f9248c05880d4638a490,Form,4,4,single_low_nomodal,1,q1,Alex
1548139765,f9a60fc23ea5f9248c05880d4638a490,Form,4,4,single_low_nomodal,1,q2,tan
1548139765,f9a60fc23ea5f9248c05880d4638a490,Form,4,4,single_low_nomodal,1,_REACTION_TIME_,4288
1548139765,f9a60fc23ea5f9248c05880d4638a490,Form,13,0,outro,NULL,nativeq,yes
1548139765,f9a60fc23ea5f9248c05880d4638a490,Form,13,0,outro,NULL,_REACTION_TIME_,5381
#
# Results on Tuesday January 22 2019 06:49:28 UTC.
# USER AGENT: Mozilla/5.0 (Windows NT 10.0; Win64; x64) AppleWebKit/537.36 (KHTML, like Gecko) Chrome/71.0.3578.98 Safari/537.36
# Design number was non-random = 171
#
# Columns below this comment are as follows:
# 1. Time results were received.
# 2. MD5 hash of participant's IP address.
# 3. Controller name.
# 4. Item number.
# 5. Element number.
# 6. Type.
# 7. Group.
# 8. Field name.
# 9. Field value.
1548139769,81eee70dd0b077d48ab3b86e8cfcea73,Form,0,0,intro,NULL,_REACTION_TIME_,860
1548139769,81eee70dd0b077d48ab3b86e8cfcea73,Form,4,3,single_low_nomodal,1,input1,no
1548139769,81eee70dd0b077d48ab3b86e8cfcea73,Form,4,3,single_low_nomodal,1,input2,yes
1548139769,81eee70dd0b077d48ab3b86e8cfcea73,Form,4,3,single_low_nomodal,1,_REACTION_TIME_,6277
1548139769,81eee70dd0b077d48ab3b86e8cfcea73,Form,4,4,single_low_nomodal,1,q1,Alex
1548139769,81eee70dd0b077d48ab3b86e8cfcea73,Form,4,4,single_low_nomodal,1,q2,green
1548139769,81eee70dd0b077d48ab3b86e8cfcea73,Form,4,4,single_low_nomodal,1,_REACTION_TIME_,3376
